#
# Results on Thu, 09 Feb 2023 16:11:16 GMT
# USER AGENT: Mozilla/5.0 (Windows NT 10.0; Win64; x64) AppleWebKit/537.36 (KHTML, like Gecko) Chrome/109.0.0.0 Safari/537.36 Edg/109.0.1518.78
# Design number was non-random = 9
#
# Columns below this comment are as follows:
# 1. Results reception time.
# 2. MD5 hash of participant's IP address.
# 3. Controller name.
# 4. Order number of item.
# 5. Inner element number.
# 6. Label.
# 7. Latin Square Group.
# 8. PennElementType.
# 9. PennElementName.
# 10. Parameter.
# 11. Value.
# 12. EventTime.
# 13. Comments.
1675959076,39d1bfacd5f6a48190c3156b3404f9cf,PennController,8,0,intro_ID,NULL,PennController,0,_Trial_,Start,1675958154937,NULL
1675959076,39d1bfacd5f6a48190c3156b3404f9cf,PennController,8,0,intro_ID,NULL,PennController,0,_Trial_,End,1675958172438,NULL
1675959076,39d1bfacd5f6a48190c3156b3404f9cf,PennController,9,0,consent_form,NULL,PennController,3,_Trial_,Start,1675958172445,NULL
1675959076,39d1bfacd5f6a48190c3156b3404f9cf,PennController,9,0,consent_form,NULL,Button,I agree.,Click,Click,1675958178369,NULL
1675959076,39d1bfacd5f6a48190c3156b3404f9cf,PennController,9,0,consent_form,NULL,PennController,3,_Trial_,End,1675958178374,NULL
1675959076,39d1bfacd5f6a48190c3156b3404f9cf,PennController,6,0,initiate_recorder,NULL,PennController,InitiateRecorder,_Trial_,Start,1675958178376,NULL
1675959076,39d1bfacd5f6a48190c3156b3404f9cf,PennController,6,0,initiate_recorder,NULL,PennController,InitiateRecorder,_Trial_,End,1675958193039,NULL
1675959076,39d1bfacd5f6a48190c3156b3404f9cf,PennController,11,0,audio_check,NULL,PennController,5,_Trial_,Start,1675958193042,NULL
1675959076,39d1bfacd5f6a48190c3156b3404f9cf,PennController,11,0,audio_check,NULL,PennController,5,_Trial_,End,1675958222214,NULL
1675959076,39d1bfacd5f6a48190c3156b3404f9cf,PennController,11,0,audio_check,NULL,MediaRecorder,ac_recorder,Filename,ac_recorder.webm,1675958222214,NULL
# 13. ProlificID.
# 14. Comments.
1675959076,39d1bfacd5f6a48190c3156b3404f9cf,PennController,10,0,questionnaire,NULL,PennController,4,_Trial_,Start,1675958222217,,NULL
1675959076,39d1bfacd5f6a48190c3156b3404f9cf,PennController,10,0,questionnaire,NULL,TextInput,Gender,First,,1675958225487,,CapsLock
1675959076,39d1bfacd5f6a48190c3156b3404f9cf,PennController,10,0,questionnaire,NULL,TextInput,Language,First,,1675958233491,,CapsLock
1675959076,39d1bfacd5f6a48190c3156b3404f9cf,PennController,10,0,questionnaire,NULL,TextInput,Prolific_ID_input,First,,1675958246034,,Control
1675959076,39d1bfacd5f6a48190c3156b3404f9cf,PennController,10,0,questionnaire,NULL,TextInput,Gender,Final,Female,1675958253087,,NULL
1675959076,39d1bfacd5f6a48190c3156b3404f9cf,PennController,10,0,questionnaire,NULL,TextInput,Prolific_ID_input,Final,5f9531aba2e73437e84922d0,1675958253088,,NULL
1675959076,39d1bfacd5f6a48190c3156b3404f9cf,PennController,10,0,questionnaire,NULL,TextInput,Impairments,Final,,1675958253088,,NULL
1675959076,39d1bfacd5f6a48190c3156b3404f9cf,PennController,10,0,questionnaire,NULL,TextInput,Language,Final,English,1675958253088,,NULL
1675959076,39d1bfacd5f6a48190c3156b3404f9cf,PennController,10,0,questionnaire,NULL,PennController,4,_Trial_,End,1675958253095,,NULL
# 13. Comments.
1675959076,39d1bfacd5f6a48190c3156b3404f9cf,PennController,0,0,preload_familiarisation,NULL,PennController,Preloader-0,_Trial_,End,1675958253097,NULL
1675959076,39d1bfacd5f6a48190c3156b3404f9cf,PennController,0,0,preload_familiarisation,NULL,PennController,Preloader-0,_Trial_,Start,1675958253097,NULL
1675959076,39d1bfacd5f6a48190c3156b3404f9cf,PennController,12,0,familiarisation,NULL,PennController,6,_Trial_,Start,1675958253098,NULL
1675959076,39d1bfacd5f6a48190c3156b3404f9cf,PennController,12,0,familiarisation,NULL,PennController,6,_Trial_,End,1675958268682,NULL
1675959076,39d1bfacd5f6a48190c3156b3404f9cf,PennController,1,0,preload_fam_block_b,NULL,PennController,Preloader-1,_Trial_,End,1675958268685,NULL
1675959076,39d1bfacd5f6a48190c3156b3404f9cf,PennController,1,0,preload_fam_block_b,NULL,PennController,Preloader-1,_Trial_,Start,1675958268685,NULL
1675959076,39d1bfacd5f6a48190c3156b3404f9cf,PennController,13,0,fam_block_b,NULL,PennController,7,_Trial_,Start,1675958268687,NULL
1675959076,39d1bfacd5f6a48190c3156b3404f9cf,PennController,13,0,fam_block_b,NULL,PennController,7,_Trial_,End,1675958270817,NULL
1675959076,39d1bfacd5f6a48190c3156b3404f9cf,PennController,14,0,fam_block_b,NULL,PennController,8,_Trial_,Start,1675958270820,NULL
1675959076,39d1bfacd5f6a48190c3156b3404f9cf,PennController,14,0,fam_block_b,NULL,PennController,8,_Trial_,End,1675958271940,NULL
1675959076,39d1bfacd5f6a48190c3156b3404f9cf,PennController,15,0,fam_block_b,NULL,PennController,9,_Trial_,Start,1675958271942,NULL
1675959076,39d1bfacd5f6a48190c3156b3404f9cf,PennController,15,0,fam_block_b,NULL,PennController,9,_Trial_,End,1675958272996,NULL
1675959076,39d1bfacd5f6a48190c3156b3404f9cf,PennController,16,0,fam_block_b,NULL,PennController,10,_Trial_,Start,1675958272998,NULL
1675959076,39d1bfacd5f6a48190c3156b3404f9cf,PennController,16,0,fam_block_b,NULL,PennController,10,_Trial_,End,1675958274084,NULL
1675959076,39d1bfacd5f6a48190c3156b3404f9cf,PennController,17,0,fam_block_b,NULL,PennController,11,_Trial_,Start,1675958274086,NULL
1675959076,39d1bfacd5f6a48190c3156b3404f9cf,PennController,17,0,fam_block_b,NULL,PennController,11,_Trial_,End,1675958274703,NULL
1675959076,39d1bfacd5f6a48190c3156b3404f9cf,PennController,18,0,fam_block_b,NULL,PennController,12,_Trial_,Start,1675958274706,NULL
1675959076,39d1bfacd5f6a48190c3156b3404f9cf,PennController,18,0,fam_block_b,NULL,PennController,12,_Trial_,End,1675958275440,NULL
1675959076,39d1bfacd5f6a48190c3156b3404f9cf,PennController,19,0,fam_block_b,NULL,PennController,13,_Trial_,Start,1675958275443,NULL
1675959076,39d1bfacd5f6a48190c3156b3404f9cf,PennController,19,0,fam_block_b,NULL,PennController,13,_Trial_,End,1675958276033,NULL
1675959076,39d1bfacd5f6a48190c3156b3404f9cf,PennController,20,0,fam_block_b,NULL,PennController,14,_Trial_,Start,1675958276035,NULL
1675959076,39d1bfacd5f6a48190c3156b3404f9cf,PennController,20,0,fam_block_b,NULL,PennController,14,_Trial_,End,1675958277617,NULL
1675959076,39d1bfacd5f6a48190c3156b3404f9cf,PennController,21,0,fam_block_b,NULL,PennController,15,_Trial_,Start,1675958277620,NULL
1675959076,39d1bfacd5f6a48190c3156b3404f9cf,PennController,21,0,fam_block_b,NULL,PennController,15,_Trial_,End,1675958278608,NULL
1675959076,39d1bfacd5f6a48190c3156b3404f9cf,PennController,22,0,fam_block_b,NULL,PennController,16,_Trial_,Start,1675958278610,NULL
1675959076,39d1bfacd5f6a48190c3156b3404f9cf,PennController,22,0,fam_block_b,NULL,PennController,16,_Trial_,End,1675958279382,NULL
1675959076,39d1bfacd5f6a48190c3156b3404f9cf,PennController,23,0,fam_block_b,NULL,PennController,17,_Trial_,Start,1675958279385,NULL
1675959076,39d1bfacd5f6a48190c3156b3404f9cf,PennController,23,0,fam_block_b,NULL,PennController,17,_Trial_,End,1675958280367,NULL
1675959076,39d1bfacd5f6a48190c3156b3404f9cf,PennController,24,0,fam_block_b,NULL,PennController,18,_Trial_,Start,1675958280369,NULL
1675959076,39d1bfacd5f6a48190c3156b3404f9cf,PennController,24,0,fam_block_b,NULL,PennController,18,_Trial_,End,1675958281084,NULL
1675959076,39d1bfacd5f6a48190c3156b3404f9cf,PennController,25,0,fam_block_b,NULL,PennController,19,_Trial_,Start,1675958281086,NULL
1675959076,39d1bfacd5f6a48190c3156b3404f9cf,PennController,25,0,fam_block_b,NULL,PennController,19,_Trial_,End,1675958281747,NULL
1675959076,39d1bfacd5f6a48190c3156b3404f9cf,PennController,26,0,fam_block_b,NULL,PennController,20,_Trial_,Start,1675958281749,NULL
1675959076,39d1bfacd5f6a48190c3156b3404f9cf,PennController,26,0,fam_block_b,NULL,PennController,20,_Trial_,End,1675958282355,NULL
1675959076,39d1bfacd5f6a48190c3156b3404f9cf,PennController,27,0,fam_block_b,NULL,PennController,21,_Trial_,Start,1675958282357,NULL
1675959076,39d1bfacd5f6a48190c3156b3404f9cf,PennController,27,0,fam_block_b,NULL,PennController,21,_Trial_,End,1675958282950,NULL
1675959076,39d1bfacd5f6a48190c3156b3404f9cf,PennController,28,0,fam_block_b,NULL,PennController,22,_Trial_,Start,1675958282953,NULL
1675959076,39d1bfacd5f6a48190c3156b3404f9cf,PennController,28,0,fam_block_b,NULL,PennController,22,_Trial_,End,1675958283502,NULL
1675959076,39d1bfacd5f6a48190c3156b3404f9cf,PennController,29,0,fam_block_b,NULL,PennController,23,_Trial_,Start,1675958283504,NULL
1675959076,39d1bfacd5f6a48190c3156b3404f9cf,PennController,29,0,fam_block_b,NULL,PennController,23,_Trial_,End,1675958284585,NULL
1675959076,39d1bfacd5f6a48190c3156b3404f9cf,PennController,30,0,fam_block_b,NULL,PennController,24,_Trial_,Start,1675958284587,NULL
1675959076,39d1bfacd5f6a48190c3156b3404f9cf,PennController,30,0,fam_block_b,NULL,PennController,24,_Trial_,End,1675958285383,NULL
1675959076,39d1bfacd5f6a48190c3156b3404f9cf,PennController,31,0,fam_block_b,NULL,PennController,25,_Trial_,Start,1675958285386,NULL
1675959076,39d1bfacd5f6a48190c3156b3404f9cf,PennController,31,0,fam_block_b,NULL,PennController,25,_Trial_,End,1675958287876,NULL
1675959076,39d1bfacd5f6a48190c3156b3404f9cf,PennController,32,0,fam_block_b,NULL,PennController,26,_Trial_,Start,1675958287880,NULL
1675959076,39d1bfacd5f6a48190c3156b3404f9cf,PennController,32,0,fam_block_b,NULL,PennController,26,_Trial_,End,1675958288578,NULL
1675959076,39d1bfacd5f6a48190c3156b3404f9cf,PennController,33,0,fam_block_b,NULL,PennController,27,_Trial_,Start,1675958288581,NULL
1675959076,39d1bfacd5f6a48190c3156b3404f9cf,PennController,33,0,fam_block_b,NULL,PennController,27,_Trial_,End,1675958289749,NULL
1675959076,39d1bfacd5f6a48190c3156b3404f9cf,PennController,34,0,fam_block_b,NULL,PennController,28,_Trial_,Start,1675958289751,NULL
1675959076,39d1bfacd5f6a48190c3156b3404f9cf,PennController,34,0,fam_block_b,NULL,PennController,28,_Trial_,End,1675958290733,NULL
1675959076,39d1bfacd5f6a48190c3156b3404f9cf,PennController,35,0,fam_block_b,NULL,PennController,29,_Trial_,Start,1675958290735,NULL
1675959076,39d1bfacd5f6a48190c3156b3404f9cf,PennController,35,0,fam_block_b,NULL,PennController,29,_Trial_,End,1675958291724,NULL
1675959076,39d1bfacd5f6a48190c3156b3404f9cf,PennController,36,0,fam_block_b,NULL,PennController,30,_Trial_,Start,1675958291727,NULL
1675959076,39d1bfacd5f6a48190c3156b3404f9cf,PennController,36,0,fam_block_b,NULL,PennController,30,_Trial_,End,1675958292575,NULL
1675959076,39d1bfacd5f6a48190c3156b3404f9cf,PennController,37,0,fam_block_b,NULL,PennController,31,_Trial_,Start,1675958292577,NULL
1675959076,39d1bfacd5f6a48190c3156b3404f9cf,PennController,37,0,fam_block_b,NULL,PennController,31,_Trial_,End,1675958293349,NULL
1675959076,39d1bfacd5f6a48190c3156b3404f9cf,PennController,38,0,fam_block_b,NULL,PennController,32,_Trial_,Start,1675958293352,NULL
1675959076,39d1bfacd5f6a48190c3156b3404f9cf,PennController,38,0,fam_block_b,NULL,PennController,32,_Trial_,End,1675958294482,NULL
1675959076,39d1bfacd5f6a48190c3156b3404f9cf,PennController,39,0,fam_block_b,NULL,PennController,33,_Trial_,Start,1675958294484,NULL
1675959076,39d1bfacd5f6a48190c3156b3404f9cf,PennController,39,0,fam_block_b,NULL,PennController,33,_Trial_,End,1675958295217,NULL
1675959076,39d1bfacd5f6a48190c3156b3404f9cf,PennController,40,0,fam_block_b,NULL,PennController,34,_Trial_,Start,1675958295220,NULL
1675959076,39d1bfacd5f6a48190c3156b3404f9cf,PennController,40,0,fam_block_b,NULL,PennController,34,_Trial_,End,1675958295859,NULL
1675959076,39d1bfacd5f6a48190c3156b3404f9cf,PennController,41,0,fam_block_b,NULL,PennController,35,_Trial_,Start,1675958295863,NULL
1675959076,39d1bfacd5f6a48190c3156b3404f9cf,PennController,41,0,fam_block_b,NULL,PennController,35,_Trial_,End,1675958296514,NULL
1675959076,39d1bfacd5f6a48190c3156b3404f9cf,PennController,42,0,fam_block_b,NULL,PennController,36,_Trial_,Start,1675958296518,NULL
1675959076,39d1bfacd5f6a48190c3156b3404f9cf,PennController,42,0,fam_block_b,NULL,PennController,36,_Trial_,End,1675958297333,NULL
1675959076,39d1bfacd5f6a48190c3156b3404f9cf,PennController,43,0,fam_block_b,NULL,PennController,37,_Trial_,Start,1675958297336,NULL
1675959076,39d1bfacd5f6a48190c3156b3404f9cf,PennController,43,0,fam_block_b,NULL,PennController,37,_Trial_,End,1675958298270,NULL
1675959076,39d1bfacd5f6a48190c3156b3404f9cf,PennController,44,0,fam_block_b,NULL,PennController,38,_Trial_,Start,1675958298272,NULL
1675959076,39d1bfacd5f6a48190c3156b3404f9cf,PennController,44,0,fam_block_b,NULL,PennController,38,_Trial_,End,1675958299573,NULL
1675959076,39d1bfacd5f6a48190c3156b3404f9cf,PennController,45,0,fam_block_b,NULL,PennController,39,_Trial_,Start,1675958299577,NULL
1675959076,39d1bfacd5f6a48190c3156b3404f9cf,PennController,45,0,fam_block_b,NULL,PennController,39,_Trial_,End,1675958301250,NULL
1675959076,39d1bfacd5f6a48190c3156b3404f9cf,PennController,46,0,fam_block_b,NULL,PennController,40,_Trial_,Start,1675958301253,NULL
1675959076,39d1bfacd5f6a48190c3156b3404f9cf,PennController,46,0,fam_block_b,NULL,PennController,40,_Trial_,End,1675958302683,NULL
1675959076,39d1bfacd5f6a48190c3156b3404f9cf,PennController,47,0,fam_block_b,NULL,PennController,41,_Trial_,Start,1675958302686,NULL
1675959076,39d1bfacd5f6a48190c3156b3404f9cf,PennController,47,0,fam_block_b,NULL,PennController,41,_Trial_,End,1675958304230,NULL
1675959076,39d1bfacd5f6a48190c3156b3404f9cf,PennController,48,0,fam_block_b,NULL,PennController,42,_Trial_,Start,1675958304232,NULL
1675959076,39d1bfacd5f6a48190c3156b3404f9cf,PennController,48,0,fam_block_b,NULL,PennController,42,_Trial_,End,1675958306108,NULL
1675959076,39d1bfacd5f6a48190c3156b3404f9cf,PennController,49,0,fam_block_b,NULL,PennController,43,_Trial_,Start,1675958306112,NULL
1675959076,39d1bfacd5f6a48190c3156b3404f9cf,PennController,49,0,fam_block_b,NULL,PennController,43,_Trial_,End,1675958307925,NULL
1675959076,39d1bfacd5f6a48190c3156b3404f9cf,PennController,50,0,fam_block_b,NULL,PennController,44,_Trial_,Start,1675958307929,NULL
1675959076,39d1bfacd5f6a48190c3156b3404f9cf,PennController,50,0,fam_block_b,NULL,PennController,44,_Trial_,End,1675958309313,NULL
1675959076,39d1bfacd5f6a48190c3156b3404f9cf,PennController,51,0,fam_block_b,NULL,PennController,45,_Trial_,Start,1675958309315,NULL
1675959076,39d1bfacd5f6a48190c3156b3404f9cf,PennController,51,0,fam_block_b,NULL,PennController,45,_Trial_,End,1675958310762,NULL
1675959076,39d1bfacd5f6a48190c3156b3404f9cf,PennController,52,0,fam_block_b,NULL,PennController,46,_Trial_,Start,1675958310765,NULL
1675959076,39d1bfacd5f6a48190c3156b3404f9cf,PennController,52,0,fam_block_b,NULL,PennController,46,_Trial_,End,1675958313467,NULL
1675959076,39d1bfacd5f6a48190c3156b3404f9cf,PennController,53,0,fam_block_b,NULL,PennController,47,_Trial_,Start,1675958313470,NULL
1675959076,39d1bfacd5f6a48190c3156b3404f9cf,PennController,53,0,fam_block_b,NULL,PennController,47,_Trial_,End,1675958314953,NULL
1675959076,39d1bfacd5f6a48190c3156b3404f9cf,PennController,54,0,fam_block_b,NULL,PennController,48,_Trial_,Start,1675958314959,NULL
1675959076,39d1bfacd5f6a48190c3156b3404f9cf,PennController,54,0,fam_block_b,NULL,PennController,48,_Trial_,End,1675958316548,NULL
1675959076,39d1bfacd5f6a48190c3156b3404f9cf,PennController,55,0,fam_block_b,NULL,PennController,49,_Trial_,Start,1675958316551,NULL
1675959076,39d1bfacd5f6a48190c3156b3404f9cf,PennController,55,0,fam_block_b,NULL,PennController,49,_Trial_,End,1675958319349,NULL
1675959076,39d1bfacd5f6a48190c3156b3404f9cf,PennController,56,0,fam_block_b,NULL,PennController,50,_Trial_,Start,1675958319350,NULL
1675959076,39d1bfacd5f6a48190c3156b3404f9cf,PennController,56,0,fam_block_b,NULL,PennController,50,_Trial_,End,1675958320714,NULL
1675959076,39d1bfacd5f6a48190c3156b3404f9cf,PennController,57,0,fam_block_b,NULL,PennController,51,_Trial_,Start,1675958320715,NULL
1675959076,39d1bfacd5f6a48190c3156b3404f9cf,PennController,57,0,fam_block_b,NULL,PennController,51,_Trial_,End,1675958322015,NULL
1675959076,39d1bfacd5f6a48190c3156b3404f9cf,PennController,58,0,fam_block_b,NULL,PennController,52,_Trial_,Start,1675958322017,NULL
1675959076,39d1bfacd5f6a48190c3156b3404f9cf,PennController,58,0,fam_block_b,NULL,PennController,52,_Trial_,End,1675958323260,NULL
1675959076,39d1bfacd5f6a48190c3156b3404f9cf,PennController,59,0,fam_block_b,NULL,PennController,53,_Trial_,Start,1675958323261,NULL
1675959076,39d1bfacd5f6a48190c3156b3404f9cf,PennController,59,0,fam_block_b,NULL,PennController,53,_Trial_,End,1675958324558,NULL
1675959076,39d1bfacd5f6a48190c3156b3404f9cf,PennController,60,0,fam_block_b,NULL,PennController,54,_Trial_,Start,1675958324560,NULL
1675959076,39d1bfacd5f6a48190c3156b3404f9cf,PennController,60,0,fam_block_b,NULL,PennController,54,_Trial_,End,1675958325826,NULL
1675959076,39d1bfacd5f6a48190c3156b3404f9cf,PennController,61,0,fam_block_b,NULL,PennController,55,_Trial_,Start,1675958325828,NULL
1675959076,39d1bfacd5f6a48190c3156b3404f9cf,PennController,61,0,fam_block_b,NULL,PennController,55,_Trial_,End,1675958326863,NULL
1675959076,39d1bfacd5f6a48190c3156b3404f9cf,PennController,62,0,fam_block_b,NULL,PennController,56,_Trial_,Start,1675958326865,NULL
1675959076,39d1bfacd5f6a48190c3156b3404f9cf,PennController,62,0,fam_block_b,NULL,PennController,56,_Trial_,End,1675958327662,NULL
1675959076,39d1bfacd5f6a48190c3156b3404f9cf,PennController,63,0,fam_block_b,NULL,PennController,57,_Trial_,Start,1675958327664,NULL
1675959076,39d1bfacd5f6a48190c3156b3404f9cf,PennController,63,0,fam_block_b,NULL,PennController,57,_Trial_,End,1675958328738,NULL
1675959076,39d1bfacd5f6a48190c3156b3404f9cf,PennController,64,0,fam_block_b,NULL,PennController,58,_Trial_,Start,1675958328740,NULL
1675959076,39d1bfacd5f6a48190c3156b3404f9cf,PennController,64,0,fam_block_b,NULL,PennController,58,_Trial_,End,1675958329862,NULL
1675959076,39d1bfacd5f6a48190c3156b3404f9cf,PennController,65,0,fam_block_b,NULL,PennController,59,_Trial_,Start,1675958329864,NULL
1675959076,39d1bfacd5f6a48190c3156b3404f9cf,PennController,65,0,fam_block_b,NULL,PennController,59,_Trial_,End,1675958330834,NULL
1675959076,39d1bfacd5f6a48190c3156b3404f9cf,PennController,66,0,fam_block_b,NULL,PennController,60,_Trial_,Start,1675958330836,NULL
1675959076,39d1bfacd5f6a48190c3156b3404f9cf,PennController,66,0,fam_block_b,NULL,PennController,60,_Trial_,End,1675958334269,NULL
1675959076,39d1bfacd5f6a48190c3156b3404f9cf,PennController,67,0,fam_block_b,NULL,PennController,61,_Trial_,Start,1675958334272,NULL
1675959076,39d1bfacd5f6a48190c3156b3404f9cf,PennController,67,0,fam_block_b,NULL,PennController,61,_Trial_,End,1675958335395,NULL
1675959076,39d1bfacd5f6a48190c3156b3404f9cf,PennController,68,0,fam_block_b,NULL,PennController,62,_Trial_,Start,1675958335397,NULL
1675959076,39d1bfacd5f6a48190c3156b3404f9cf,PennController,68,0,fam_block_b,NULL,PennController,62,_Trial_,End,1675958336075,NULL
1675959076,39d1bfacd5f6a48190c3156b3404f9cf,PennController,69,0,fam_block_b,NULL,PennController,63,_Trial_,Start,1675958336077,NULL
1675959076,39d1bfacd5f6a48190c3156b3404f9cf,PennController,69,0,fam_block_b,NULL,PennController,63,_Trial_,End,1675958336806,NULL
1675959076,39d1bfacd5f6a48190c3156b3404f9cf,PennController,70,0,fam_block_b,NULL,PennController,64,_Trial_,Start,1675958336808,NULL
1675959076,39d1bfacd5f6a48190c3156b3404f9cf,PennController,70,0,fam_block_b,NULL,PennController,64,_Trial_,End,1675958337977,NULL
1675959076,39d1bfacd5f6a48190c3156b3404f9cf,PennController,71,0,fam_block_b,NULL,PennController,65,_Trial_,Start,1675958337979,NULL
1675959076,39d1bfacd5f6a48190c3156b3404f9cf,PennController,71,0,fam_block_b,NULL,PennController,65,_Trial_,End,1675958338651,NULL
1675959076,39d1bfacd5f6a48190c3156b3404f9cf,PennController,72,0,fam_block_b,NULL,PennController,66,_Trial_,Start,1675958338655,NULL
1675959076,39d1bfacd5f6a48190c3156b3404f9cf,PennController,72,0,fam_block_b,NULL,PennController,66,_Trial_,End,1675958340172,NULL
1675959076,39d1bfacd5f6a48190c3156b3404f9cf,PennController,73,0,fam_block_b,NULL,PennController,67,_Trial_,Start,1675958340174,NULL
1675959076,39d1bfacd5f6a48190c3156b3404f9cf,PennController,73,0,fam_block_b,NULL,PennController,67,_Trial_,End,1675958341113,NULL
1675959076,39d1bfacd5f6a48190c3156b3404f9cf,PennController,74,0,fam_block_b,NULL,PennController,68,_Trial_,Start,1675958341115,NULL
1675959076,39d1bfacd5f6a48190c3156b3404f9cf,PennController,74,0,fam_block_b,NULL,PennController,68,_Trial_,End,1675958342256,NULL
1675959076,39d1bfacd5f6a48190c3156b3404f9cf,PennController,75,0,fam_block_b,NULL,PennController,69,_Trial_,Start,1675958342258,NULL
1675959076,39d1bfacd5f6a48190c3156b3404f9cf,PennController,75,0,fam_block_b,NULL,PennController,69,_Trial_,End,1675958342931,NULL
1675959076,39d1bfacd5f6a48190c3156b3404f9cf,PennController,76,0,fam_block_b,NULL,PennController,70,_Trial_,Start,1675958342933,NULL
1675959076,39d1bfacd5f6a48190c3156b3404f9cf,PennController,76,0,fam_block_b,NULL,PennController,70,_Trial_,End,1675958343872,NULL
1675959076,39d1bfacd5f6a48190c3156b3404f9cf,PennController,77,0,fam_block_b,NULL,PennController,71,_Trial_,Start,1675958343874,NULL
1675959076,39d1bfacd5f6a48190c3156b3404f9cf,PennController,77,0,fam_block_b,NULL,PennController,71,_Trial_,End,1675958345054,NULL
1675959076,39d1bfacd5f6a48190c3156b3404f9cf,PennController,78,0,fam_block_b,NULL,PennController,72,_Trial_,Start,1675958345057,NULL
1675959076,39d1bfacd5f6a48190c3156b3404f9cf,PennController,78,0,fam_block_b,NULL,PennController,72,_Trial_,End,1675958345808,NULL
1675959076,39d1bfacd5f6a48190c3156b3404f9cf,PennController,79,0,fam_block_b,NULL,PennController,73,_Trial_,Start,1675958345810,NULL
1675959076,39d1bfacd5f6a48190c3156b3404f9cf,PennController,79,0,fam_block_b,NULL,PennController,73,_Trial_,End,1675958346433,NULL
1675959076,39d1bfacd5f6a48190c3156b3404f9cf,PennController,80,0,fam_block_b,NULL,PennController,74,_Trial_,Start,1675958346437,NULL
1675959076,39d1bfacd5f6a48190c3156b3404f9cf,PennController,80,0,fam_block_b,NULL,PennController,74,_Trial_,End,1675958347704,NULL
1675959076,39d1bfacd5f6a48190c3156b3404f9cf,PennController,81,0,fam_block_b,NULL,PennController,75,_Trial_,Start,1675958347707,NULL
1675959076,39d1bfacd5f6a48190c3156b3404f9cf,PennController,81,0,fam_block_b,NULL,PennController,75,_Trial_,End,1675958348864,NULL
1675959076,39d1bfacd5f6a48190c3156b3404f9cf,PennController,82,0,fam_block_b,NULL,PennController,76,_Trial_,Start,1675958348866,NULL
1675959076,39d1bfacd5f6a48190c3156b3404f9cf,PennController,82,0,fam_block_b,NULL,PennController,76,_Trial_,End,1675958349679,NULL
1675959076,39d1bfacd5f6a48190c3156b3404f9cf,PennController,83,0,fam_block_b,NULL,PennController,77,_Trial_,Start,1675958349681,NULL
1675959076,39d1bfacd5f6a48190c3156b3404f9cf,PennController,83,0,fam_block_b,NULL,PennController,77,_Trial_,End,1675958350581,NULL
1675959076,39d1bfacd5f6a48190c3156b3404f9cf,PennController,84,0,fam_block_b,NULL,PennController,78,_Trial_,Start,1675958350585,NULL
1675959076,39d1bfacd5f6a48190c3156b3404f9cf,PennController,84,0,fam_block_b,NULL,PennController,78,_Trial_,End,1675958351338,NULL
1675959076,39d1bfacd5f6a48190c3156b3404f9cf,PennController,85,0,fam_block_b,NULL,PennController,79,_Trial_,Start,1675958351341,NULL
1675959076,39d1bfacd5f6a48190c3156b3404f9cf,PennController,85,0,fam_block_b,NULL,PennController,79,_Trial_,End,1675958352204,NULL
1675959076,39d1bfacd5f6a48190c3156b3404f9cf,PennController,86,0,fam_block_b,NULL,PennController,80,_Trial_,Start,1675958352207,NULL
1675959076,39d1bfacd5f6a48190c3156b3404f9cf,PennController,86,0,fam_block_b,NULL,PennController,80,_Trial_,End,1675958353373,NULL
1675959076,39d1bfacd5f6a48190c3156b3404f9cf,PennController,87,0,fam_block_b,NULL,PennController,81,_Trial_,Start,1675958353376,NULL
1675959076,39d1bfacd5f6a48190c3156b3404f9cf,PennController,87,0,fam_block_b,NULL,PennController,81,_Trial_,End,1675958354175,NULL
1675959076,39d1bfacd5f6a48190c3156b3404f9cf,PennController,88,0,fam_block_b,NULL,PennController,82,_Trial_,Start,1675958354178,NULL
1675959076,39d1bfacd5f6a48190c3156b3404f9cf,PennController,88,0,fam_block_b,NULL,PennController,82,_Trial_,End,1675958355107,NULL
1675959076,39d1bfacd5f6a48190c3156b3404f9cf,PennController,89,0,fam_block_b,NULL,PennController,83,_Trial_,Start,1675958355110,NULL
1675959076,39d1bfacd5f6a48190c3156b3404f9cf,PennController,89,0,fam_block_b,NULL,PennController,83,_Trial_,End,1675958355830,NULL
1675959076,39d1bfacd5f6a48190c3156b3404f9cf,PennController,90,0,fam_block_b,NULL,PennController,84,_Trial_,Start,1675958355833,NULL
1675959076,39d1bfacd5f6a48190c3156b3404f9cf,PennController,90,0,fam_block_b,NULL,PennController,84,_Trial_,End,1675958356953,NULL
1675959076,39d1bfacd5f6a48190c3156b3404f9cf,PennController,91,0,fam_block_b,NULL,PennController,85,_Trial_,Start,1675958356956,NULL
1675959076,39d1bfacd5f6a48190c3156b3404f9cf,PennController,91,0,fam_block_b,NULL,PennController,85,_Trial_,End,1675958357995,NULL
1675959076,39d1bfacd5f6a48190c3156b3404f9cf,PennController,92,0,fam_block_b,NULL,PennController,86,_Trial_,Start,1675958357998,NULL
1675959076,39d1bfacd5f6a48190c3156b3404f9cf,PennController,92,0,fam_block_b,NULL,PennController,86,_Trial_,End,1675958359124,NULL
1675959076,39d1bfacd5f6a48190c3156b3404f9cf,PennController,93,0,fam_block_b,NULL,PennController,87,_Trial_,Start,1675958359126,NULL
1675959076,39d1bfacd5f6a48190c3156b3404f9cf,PennController,93,0,fam_block_b,NULL,PennController,87,_Trial_,End,1675958360184,NULL
1675959076,39d1bfacd5f6a48190c3156b3404f9cf,PennController,94,0,fam_block_b,NULL,PennController,88,_Trial_,Start,1675958360186,NULL
1675959076,39d1bfacd5f6a48190c3156b3404f9cf,PennController,94,0,fam_block_b,NULL,PennController,88,_Trial_,End,1675958362554,NULL
1675959076,39d1bfacd5f6a48190c3156b3404f9cf,PennController,95,0,fam_block_b,NULL,PennController,89,_Trial_,Start,1675958362557,NULL
1675959076,39d1bfacd5f6a48190c3156b3404f9cf,PennController,95,0,fam_block_b,NULL,PennController,89,_Trial_,End,1675958363322,NULL
1675959076,39d1bfacd5f6a48190c3156b3404f9cf,PennController,96,0,fam_block_b,NULL,PennController,90,_Trial_,Start,1675958363325,NULL
1675959076,39d1bfacd5f6a48190c3156b3404f9cf,PennController,96,0,fam_block_b,NULL,PennController,90,_Trial_,End,1675958364177,NULL
1675959076,39d1bfacd5f6a48190c3156b3404f9cf,PennController,97,0,fam_block_b,NULL,PennController,91,_Trial_,Start,1675958364181,NULL
1675959076,39d1bfacd5f6a48190c3156b3404f9cf,PennController,97,0,fam_block_b,NULL,PennController,91,_Trial_,End,1675958364917,NULL
1675959076,39d1bfacd5f6a48190c3156b3404f9cf,PennController,98,0,fam_block_b,NULL,PennController,92,_Trial_,Start,1675958364919,NULL
1675959076,39d1bfacd5f6a48190c3156b3404f9cf,PennController,98,0,fam_block_b,NULL,PennController,92,_Trial_,End,1675958365708,NULL
1675959076,39d1bfacd5f6a48190c3156b3404f9cf,PennController,99,0,fam_block_b,NULL,PennController,93,_Trial_,Start,1675958365710,NULL
1675959076,39d1bfacd5f6a48190c3156b3404f9cf,PennController,99,0,fam_block_b,NULL,PennController,93,_Trial_,End,1675958366479,NULL
1675959076,39d1bfacd5f6a48190c3156b3404f9cf,PennController,100,0,fam_block_b,NULL,PennController,94,_Trial_,Start,1675958366483,NULL
1675959076,39d1bfacd5f6a48190c3156b3404f9cf,PennController,100,0,fam_block_b,NULL,PennController,94,_Trial_,End,1675958368502,NULL
1675959076,39d1bfacd5f6a48190c3156b3404f9cf,PennController,101,0,fam_block_b,NULL,PennController,95,_Trial_,Start,1675958368504,NULL
1675959076,39d1bfacd5f6a48190c3156b3404f9cf,PennController,101,0,fam_block_b,NULL,PennController,95,_Trial_,End,1675958369337,NULL
1675959076,39d1bfacd5f6a48190c3156b3404f9cf,PennController,102,0,fam_block_b,NULL,PennController,96,_Trial_,Start,1675958369339,NULL
1675959076,39d1bfacd5f6a48190c3156b3404f9cf,PennController,102,0,fam_block_b,NULL,PennController,96,_Trial_,End,1675958370118,NULL
1675959076,39d1bfacd5f6a48190c3156b3404f9cf,PennController,103,0,fam_block_b,NULL,PennController,97,_Trial_,Start,1675958370120,NULL
1675959076,39d1bfacd5f6a48190c3156b3404f9cf,PennController,103,0,fam_block_b,NULL,PennController,97,_Trial_,End,1675958371202,NULL
1675959076,39d1bfacd5f6a48190c3156b3404f9cf,PennController,104,0,fam_block_b,NULL,PennController,98,_Trial_,Start,1675958371203,NULL
1675959076,39d1bfacd5f6a48190c3156b3404f9cf,PennController,104,0,fam_block_b,NULL,PennController,98,_Trial_,End,1675958372634,NULL
1675959076,39d1bfacd5f6a48190c3156b3404f9cf,PennController,105,0,fam_block_b,NULL,PennController,99,_Trial_,Start,1675958372636,NULL
1675959076,39d1bfacd5f6a48190c3156b3404f9cf,PennController,105,0,fam_block_b,NULL,PennController,99,_Trial_,End,1675958373700,NULL
1675959076,39d1bfacd5f6a48190c3156b3404f9cf,PennController,106,0,fam_block_b,NULL,PennController,100,_Trial_,Start,1675958373702,NULL
1675959076,39d1bfacd5f6a48190c3156b3404f9cf,PennController,106,0,fam_block_b,NULL,PennController,100,_Trial_,End,1675958374408,NULL
1675959076,39d1bfacd5f6a48190c3156b3404f9cf,PennController,107,0,fam_block_b,NULL,PennController,101,_Trial_,Start,1675958374410,NULL
1675959076,39d1bfacd5f6a48190c3156b3404f9cf,PennController,107,0,fam_block_b,NULL,PennController,101,_Trial_,End,1675958375324,NULL
1675959076,39d1bfacd5f6a48190c3156b3404f9cf,PennController,108,0,fam_block_b,NULL,PennController,102,_Trial_,Start,1675958375326,NULL
1675959076,39d1bfacd5f6a48190c3156b3404f9cf,PennController,108,0,fam_block_b,NULL,PennController,102,_Trial_,End,1675958376203,NULL
1675959076,39d1bfacd5f6a48190c3156b3404f9cf,PennController,109,0,fam_block_b,NULL,PennController,103,_Trial_,Start,1675958376204,NULL
1675959076,39d1bfacd5f6a48190c3156b3404f9cf,PennController,109,0,fam_block_b,NULL,PennController,103,_Trial_,End,1675958378877,NULL
1675959076,39d1bfacd5f6a48190c3156b3404f9cf,PennController,110,0,fam_block_b,NULL,PennController,104,_Trial_,Start,1675958378880,NULL
1675959076,39d1bfacd5f6a48190c3156b3404f9cf,PennController,110,0,fam_block_b,NULL,PennController,104,_Trial_,End,1675958379671,NULL
1675959076,39d1bfacd5f6a48190c3156b3404f9cf,PennController,111,0,fam_block_b,NULL,PennController,105,_Trial_,Start,1675958379673,NULL
1675959076,39d1bfacd5f6a48190c3156b3404f9cf,PennController,111,0,fam_block_b,NULL,PennController,105,_Trial_,End,1675958380398,NULL
1675959076,39d1bfacd5f6a48190c3156b3404f9cf,PennController,112,0,fam_block_b,NULL,PennController,106,_Trial_,Start,1675958380400,NULL
1675959076,39d1bfacd5f6a48190c3156b3404f9cf,PennController,112,0,fam_block_b,NULL,PennController,106,_Trial_,End,1675958381258,NULL
1675959076,39d1bfacd5f6a48190c3156b3404f9cf,PennController,113,0,fam_block_b,NULL,PennController,107,_Trial_,Start,1675958381260,NULL
1675959076,39d1bfacd5f6a48190c3156b3404f9cf,PennController,113,0,fam_block_b,NULL,PennController,107,_Trial_,End,1675958382889,NULL
1675959076,39d1bfacd5f6a48190c3156b3404f9cf,PennController,114,0,fam_block_b,NULL,PennController,108,_Trial_,Start,1675958382890,NULL
1675959076,39d1bfacd5f6a48190c3156b3404f9cf,PennController,114,0,fam_block_b,NULL,PennController,108,_Trial_,End,1675958384444,NULL
1675959076,39d1bfacd5f6a48190c3156b3404f9cf,PennController,115,0,fam_block_b,NULL,PennController,109,_Trial_,Start,1675958384447,NULL
1675959076,39d1bfacd5f6a48190c3156b3404f9cf,PennController,115,0,fam_block_b,NULL,PennController,109,_Trial_,End,1675958385376,NULL
1675959076,39d1bfacd5f6a48190c3156b3404f9cf,PennController,116,0,fam_block_b,NULL,PennController,110,_Trial_,Start,1675958385378,NULL
1675959076,39d1bfacd5f6a48190c3156b3404f9cf,PennController,116,0,fam_block_b,NULL,PennController,110,_Trial_,End,1675958386288,NULL
1675959076,39d1bfacd5f6a48190c3156b3404f9cf,PennController,117,0,fam_block_b,NULL,PennController,111,_Trial_,Start,1675958386290,NULL
1675959076,39d1bfacd5f6a48190c3156b3404f9cf,PennController,117,0,fam_block_b,NULL,PennController,111,_Trial_,End,1675958387120,NULL
1675959076,39d1bfacd5f6a48190c3156b3404f9cf,PennController,118,0,fam_block_b,NULL,PennController,112,_Trial_,Start,1675958387122,NULL
1675959076,39d1bfacd5f6a48190c3156b3404f9cf,PennController,118,0,fam_block_b,NULL,PennController,112,_Trial_,End,1675958387913,NULL
1675959076,39d1bfacd5f6a48190c3156b3404f9cf,PennController,119,0,fam_block_b,NULL,PennController,113,_Trial_,Start,1675958387915,NULL
1675959076,39d1bfacd5f6a48190c3156b3404f9cf,PennController,119,0,fam_block_b,NULL,PennController,113,_Trial_,End,1675958388689,NULL
1675959076,39d1bfacd5f6a48190c3156b3404f9cf,PennController,120,0,fam_block_b,NULL,PennController,114,_Trial_,Start,1675958388691,NULL
1675959076,39d1bfacd5f6a48190c3156b3404f9cf,PennController,120,0,fam_block_b,NULL,PennController,114,_Trial_,End,1675958389660,NULL
1675959076,39d1bfacd5f6a48190c3156b3404f9cf,PennController,121,0,fam_block_b,NULL,PennController,115,_Trial_,Start,1675958389663,NULL
1675959076,39d1bfacd5f6a48190c3156b3404f9cf,PennController,121,0,fam_block_b,NULL,PennController,115,_Trial_,End,1675958391038,NULL
1675959076,39d1bfacd5f6a48190c3156b3404f9cf,PennController,122,0,fam_block_b,NULL,PennController,116,_Trial_,Start,1675958391040,NULL
1675959076,39d1bfacd5f6a48190c3156b3404f9cf,PennController,122,0,fam_block_b,NULL,PennController,116,_Trial_,End,1675958391937,NULL
1675959076,39d1bfacd5f6a48190c3156b3404f9cf,PennController,123,0,fam_block_b,NULL,PennController,117,_Trial_,Start,1675958391939,NULL
1675959076,39d1bfacd5f6a48190c3156b3404f9cf,PennController,123,0,fam_block_b,NULL,PennController,117,_Trial_,End,1675958392695,NULL
1675959076,39d1bfacd5f6a48190c3156b3404f9cf,PennController,124,0,fam_block_b,NULL,PennController,118,_Trial_,Start,1675958392697,NULL
1675959076,39d1bfacd5f6a48190c3156b3404f9cf,PennController,124,0,fam_block_b,NULL,PennController,118,_Trial_,End,1675958393355,NULL
1675959076,39d1bfacd5f6a48190c3156b3404f9cf,PennController,125,0,fam_block_b,NULL,PennController,119,_Trial_,Start,1675958393357,NULL
1675959076,39d1bfacd5f6a48190c3156b3404f9cf,PennController,125,0,fam_block_b,NULL,PennController,119,_Trial_,End,1675958394006,NULL
1675959076,39d1bfacd5f6a48190c3156b3404f9cf,PennController,126,0,fam_block_b,NULL,PennController,120,_Trial_,Start,1675958394008,NULL
1675959076,39d1bfacd5f6a48190c3156b3404f9cf,PennController,126,0,fam_block_b,NULL,PennController,120,_Trial_,End,1675958394759,NULL
1675959076,39d1bfacd5f6a48190c3156b3404f9cf,PennController,127,0,fam_block_b,NULL,PennController,121,_Trial_,Start,1675958394761,NULL
1675959076,39d1bfacd5f6a48190c3156b3404f9cf,PennController,127,0,fam_block_b,NULL,PennController,121,_Trial_,End,1675958395586,NULL
1675959076,39d1bfacd5f6a48190c3156b3404f9cf,PennController,128,0,fam_block_b,NULL,PennController,122,_Trial_,Start,1675958395589,NULL
1675959076,39d1bfacd5f6a48190c3156b3404f9cf,PennController,128,0,fam_block_b,NULL,PennController,122,_Trial_,End,1675958396940,NULL
1675959076,39d1bfacd5f6a48190c3156b3404f9cf,PennController,129,0,fam_block_b,NULL,PennController,123,_Trial_,Start,1675958396941,NULL
1675959076,39d1bfacd5f6a48190c3156b3404f9cf,PennController,129,0,fam_block_b,NULL,PennController,123,_Trial_,End,1675958398709,NULL
1675959076,39d1bfacd5f6a48190c3156b3404f9cf,PennController,130,0,fam_block_b,NULL,PennController,124,_Trial_,Start,1675958398710,NULL
1675959076,39d1bfacd5f6a48190c3156b3404f9cf,PennController,130,0,fam_block_b,NULL,PennController,124,_Trial_,End,1675958399567,NULL
1675959076,39d1bfacd5f6a48190c3156b3404f9cf,PennController,131,0,fam_block_b,NULL,PennController,125,_Trial_,Start,1675958399570,NULL
1675959076,39d1bfacd5f6a48190c3156b3404f9cf,PennController,131,0,fam_block_b,NULL,PennController,125,_Trial_,End,1675958400954,NULL
1675959076,39d1bfacd5f6a48190c3156b3404f9cf,PennController,132,0,fam_block_b,NULL,PennController,126,_Trial_,Start,1675958400957,NULL
1675959076,39d1bfacd5f6a48190c3156b3404f9cf,PennController,132,0,fam_block_b,NULL,PennController,126,_Trial_,End,1675958402018,NULL
1675959076,39d1bfacd5f6a48190c3156b3404f9cf,PennController,133,0,fam_block_b,NULL,PennController,127,_Trial_,Start,1675958402021,NULL
1675959076,39d1bfacd5f6a48190c3156b3404f9cf,PennController,133,0,fam_block_b,NULL,PennController,127,_Trial_,End,1675958402705,NULL
1675959076,39d1bfacd5f6a48190c3156b3404f9cf,PennController,134,0,fam_block_b,NULL,PennController,128,_Trial_,Start,1675958402709,NULL
1675959076,39d1bfacd5f6a48190c3156b3404f9cf,PennController,134,0,fam_block_b,NULL,PennController,128,_Trial_,End,1675958403751,NULL
1675959076,39d1bfacd5f6a48190c3156b3404f9cf,PennController,135,0,fam_block_b,NULL,PennController,129,_Trial_,Start,1675958403754,NULL
1675959076,39d1bfacd5f6a48190c3156b3404f9cf,PennController,135,0,fam_block_b,NULL,PennController,129,_Trial_,End,1675958404854,NULL
1675959076,39d1bfacd5f6a48190c3156b3404f9cf,PennController,136,0,fam_block_b,NULL,PennController,130,_Trial_,Start,1675958404856,NULL
1675959076,39d1bfacd5f6a48190c3156b3404f9cf,PennController,136,0,fam_block_b,NULL,PennController,130,_Trial_,End,1675958406070,NULL
1675959076,39d1bfacd5f6a48190c3156b3404f9cf,PennController,137,0,fam_block_b,NULL,PennController,131,_Trial_,Start,1675958406072,NULL
1675959076,39d1bfacd5f6a48190c3156b3404f9cf,PennController,137,0,fam_block_b,NULL,PennController,131,_Trial_,End,1675958407008,NULL
1675959076,39d1bfacd5f6a48190c3156b3404f9cf,PennController,138,0,fam_block_b,NULL,PennController,132,_Trial_,Start,1675958407011,NULL
1675959076,39d1bfacd5f6a48190c3156b3404f9cf,PennController,138,0,fam_block_b,NULL,PennController,132,_Trial_,End,1675958407737,NULL
1675959076,39d1bfacd5f6a48190c3156b3404f9cf,PennController,139,0,fam_block_b,NULL,PennController,133,_Trial_,Start,1675958407740,NULL
1675959076,39d1bfacd5f6a48190c3156b3404f9cf,PennController,139,0,fam_block_b,NULL,PennController,133,_Trial_,End,1675958408533,NULL
1675959076,39d1bfacd5f6a48190c3156b3404f9cf,PennController,140,0,fam_block_b,NULL,PennController,134,_Trial_,Start,1675958408536,NULL
1675959076,39d1bfacd5f6a48190c3156b3404f9cf,PennController,140,0,fam_block_b,NULL,PennController,134,_Trial_,End,1675958410043,NULL
1675959076,39d1bfacd5f6a48190c3156b3404f9cf,PennController,141,0,fam_block_b,NULL,PennController,135,_Trial_,Start,1675958410047,NULL
1675959076,39d1bfacd5f6a48190c3156b3404f9cf,PennController,141,0,fam_block_b,NULL,PennController,135,_Trial_,End,1675958410740,NULL
1675959076,39d1bfacd5f6a48190c3156b3404f9cf,PennController,142,0,fam_block_b,NULL,PennController,136,_Trial_,Start,1675958410743,NULL
1675959076,39d1bfacd5f6a48190c3156b3404f9cf,PennController,142,0,fam_block_b,NULL,PennController,136,_Trial_,End,1675958412002,NULL
1675959076,39d1bfacd5f6a48190c3156b3404f9cf,PennController,143,0,fam_block_b,NULL,PennController,137,_Trial_,Start,1675958412004,NULL
1675959076,39d1bfacd5f6a48190c3156b3404f9cf,PennController,143,0,fam_block_b,NULL,PennController,137,_Trial_,End,1675958413040,NULL
1675959076,39d1bfacd5f6a48190c3156b3404f9cf,PennController,144,0,fam_block_b,NULL,PennController,138,_Trial_,Start,1675958413043,NULL
1675959076,39d1bfacd5f6a48190c3156b3404f9cf,PennController,144,0,fam_block_b,NULL,PennController,138,_Trial_,End,1675958413900,NULL
1675959076,39d1bfacd5f6a48190c3156b3404f9cf,PennController,145,0,fam_block_b,NULL,PennController,139,_Trial_,Start,1675958413904,NULL
1675959076,39d1bfacd5f6a48190c3156b3404f9cf,PennController,145,0,fam_block_b,NULL,PennController,139,_Trial_,End,1675958415356,NULL
1675959076,39d1bfacd5f6a48190c3156b3404f9cf,PennController,146,0,fam_block_b,NULL,PennController,140,_Trial_,Start,1675958415359,NULL
1675959076,39d1bfacd5f6a48190c3156b3404f9cf,PennController,146,0,fam_block_b,NULL,PennController,140,_Trial_,End,1675958416223,NULL
1675959076,39d1bfacd5f6a48190c3156b3404f9cf,PennController,147,0,fam_block_b,NULL,PennController,141,_Trial_,Start,1675958416225,NULL
1675959076,39d1bfacd5f6a48190c3156b3404f9cf,PennController,147,0,fam_block_b,NULL,PennController,141,_Trial_,End,1675958417576,NULL
1675959076,39d1bfacd5f6a48190c3156b3404f9cf,PennController,148,0,fam_block_b,NULL,PennController,142,_Trial_,Start,1675958417581,NULL
1675959076,39d1bfacd5f6a48190c3156b3404f9cf,PennController,148,0,fam_block_b,NULL,PennController,142,_Trial_,End,1675958418825,NULL
1675959076,39d1bfacd5f6a48190c3156b3404f9cf,PennController,149,0,fam_block_b,NULL,PennController,143,_Trial_,Start,1675958418827,NULL
1675959076,39d1bfacd5f6a48190c3156b3404f9cf,PennController,149,0,fam_block_b,NULL,PennController,143,_Trial_,End,1675958420490,NULL
1675959076,39d1bfacd5f6a48190c3156b3404f9cf,PennController,150,0,fam_block_b,NULL,PennController,144,_Trial_,Start,1675958420493,NULL
1675959076,39d1bfacd5f6a48190c3156b3404f9cf,PennController,150,0,fam_block_b,NULL,PennController,144,_Trial_,End,1675958421134,NULL
1675959076,39d1bfacd5f6a48190c3156b3404f9cf,PennController,151,0,fam_block_b,NULL,PennController,145,_Trial_,Start,1675958421137,NULL
1675959076,39d1bfacd5f6a48190c3156b3404f9cf,PennController,151,0,fam_block_b,NULL,PennController,145,_Trial_,End,1675958421900,NULL
1675959076,39d1bfacd5f6a48190c3156b3404f9cf,PennController,152,0,fam_block_b,NULL,PennController,146,_Trial_,Start,1675958421902,NULL
1675959076,39d1bfacd5f6a48190c3156b3404f9cf,PennController,152,0,fam_block_b,NULL,PennController,146,_Trial_,End,1675958422716,NULL
1675959076,39d1bfacd5f6a48190c3156b3404f9cf,PennController,153,0,fam_block_b,NULL,PennController,147,_Trial_,Start,1675958422717,NULL
1675959076,39d1bfacd5f6a48190c3156b3404f9cf,PennController,153,0,fam_block_b,NULL,PennController,147,_Trial_,End,1675958423975,NULL
1675959076,39d1bfacd5f6a48190c3156b3404f9cf,PennController,154,0,fam_block_b,NULL,PennController,148,_Trial_,Start,1675958423976,NULL
1675959076,39d1bfacd5f6a48190c3156b3404f9cf,PennController,154,0,fam_block_b,NULL,PennController,148,_Trial_,End,1675958424959,NULL
1675959076,39d1bfacd5f6a48190c3156b3404f9cf,PennController,155,0,fam_block_b,NULL,PennController,149,_Trial_,Start,1675958424961,NULL
1675959076,39d1bfacd5f6a48190c3156b3404f9cf,PennController,155,0,fam_block_b,NULL,PennController,149,_Trial_,End,1675958425707,NULL
1675959076,39d1bfacd5f6a48190c3156b3404f9cf,PennController,156,0,fam_block_b,NULL,PennController,150,_Trial_,Start,1675958425709,NULL
1675959076,39d1bfacd5f6a48190c3156b3404f9cf,PennController,156,0,fam_block_b,NULL,PennController,150,_Trial_,End,1675958426366,NULL
1675959076,39d1bfacd5f6a48190c3156b3404f9cf,PennController,157,0,fam_block_b,NULL,PennController,151,_Trial_,Start,1675958426368,NULL
1675959076,39d1bfacd5f6a48190c3156b3404f9cf,PennController,157,0,fam_block_b,NULL,PennController,151,_Trial_,End,1675958427210,NULL
1675959076,39d1bfacd5f6a48190c3156b3404f9cf,PennController,158,0,fam_block_b,NULL,PennController,152,_Trial_,Start,1675958427212,NULL
1675959076,39d1bfacd5f6a48190c3156b3404f9cf,PennController,158,0,fam_block_b,NULL,PennController,152,_Trial_,End,1675958429930,NULL
1675959076,39d1bfacd5f6a48190c3156b3404f9cf,PennController,159,0,fam_block_b,NULL,PennController,153,_Trial_,Start,1675958429931,NULL
1675959076,39d1bfacd5f6a48190c3156b3404f9cf,PennController,159,0,fam_block_b,NULL,PennController,153,_Trial_,End,1675958430604,NULL
1675959076,39d1bfacd5f6a48190c3156b3404f9cf,PennController,160,0,fam_block_b,NULL,PennController,154,_Trial_,Start,1675958430605,NULL
1675959076,39d1bfacd5f6a48190c3156b3404f9cf,PennController,160,0,fam_block_b,NULL,PennController,154,_Trial_,End,1675958431184,NULL
1675959076,39d1bfacd5f6a48190c3156b3404f9cf,PennController,161,0,fam_block_b,NULL,PennController,155,_Trial_,Start,1675958431185,NULL
1675959076,39d1bfacd5f6a48190c3156b3404f9cf,PennController,161,0,fam_block_b,NULL,PennController,155,_Trial_,End,1675958431921,NULL
1675959076,39d1bfacd5f6a48190c3156b3404f9cf,PennController,162,0,fam_block_b,NULL,PennController,156,_Trial_,Start,1675958431923,NULL
1675959076,39d1bfacd5f6a48190c3156b3404f9cf,PennController,162,0,fam_block_b,NULL,PennController,156,_Trial_,End,1675958432709,NULL
1675959076,39d1bfacd5f6a48190c3156b3404f9cf,PennController,163,0,fam_block_b,NULL,PennController,157,_Trial_,Start,1675958432712,NULL
1675959076,39d1bfacd5f6a48190c3156b3404f9cf,PennController,163,0,fam_block_b,NULL,PennController,157,_Trial_,End,1675958434127,NULL
1675959076,39d1bfacd5f6a48190c3156b3404f9cf,PennController,164,0,fam_block_b,NULL,PennController,158,_Trial_,Start,1675958434129,NULL
1675959076,39d1bfacd5f6a48190c3156b3404f9cf,PennController,164,0,fam_block_b,NULL,PennController,158,_Trial_,End,1675958434879,NULL
1675959076,39d1bfacd5f6a48190c3156b3404f9cf,PennController,165,0,fam_block_b,NULL,PennController,159,_Trial_,Start,1675958434881,NULL
1675959076,39d1bfacd5f6a48190c3156b3404f9cf,PennController,165,0,fam_block_b,NULL,PennController,159,_Trial_,End,1675958436039,NULL
1675959076,39d1bfacd5f6a48190c3156b3404f9cf,PennController,166,0,fam_block_b,NULL,PennController,160,_Trial_,Start,1675958436041,NULL
1675959076,39d1bfacd5f6a48190c3156b3404f9cf,PennController,166,0,fam_block_b,NULL,PennController,160,_Trial_,End,1675958436928,NULL
1675959076,39d1bfacd5f6a48190c3156b3404f9cf,PennController,167,0,fam_block_b,NULL,PennController,161,_Trial_,Start,1675958436930,NULL
1675959076,39d1bfacd5f6a48190c3156b3404f9cf,PennController,167,0,fam_block_b,NULL,PennController,161,_Trial_,End,1675958438283,NULL
1675959076,39d1bfacd5f6a48190c3156b3404f9cf,PennController,2,0,preload_practice,NULL,PennController,Preloader-2,_Trial_,End,1675958438285,NULL
1675959076,39d1bfacd5f6a48190c3156b3404f9cf,PennController,2,0,preload_practice,NULL,PennController,Preloader-2,_Trial_,Start,1675958438285,NULL
1675959076,39d1bfacd5f6a48190c3156b3404f9cf,PennController,168,0,practice,NULL,PennController,162,_Trial_,Start,1675958438287,NULL
1675959076,39d1bfacd5f6a48190c3156b3404f9cf,PennController,168,0,practice,NULL,PennController,162,_Trial_,End,1675958461931,NULL
1675959076,39d1bfacd5f6a48190c3156b3404f9cf,PennController,3,0,preload_prac_block_b,NULL,PennController,Preloader-3,_Trial_,End,1675958461934,NULL
1675959076,39d1bfacd5f6a48190c3156b3404f9cf,PennController,3,0,preload_prac_block_b,NULL,PennController,Preloader-3,_Trial_,Start,1675958461934,NULL
# 13. Target.
# 14. Slide.
# 15. Comments.
1675959076,39d1bfacd5f6a48190c3156b3404f9cf,PennController,169,0,prac_block_b,NULL,PennController,163,_Trial_,Start,1675958461935,dominoes,Slide1Practice_b.PNG,NULL
1675959076,39d1bfacd5f6a48190c3156b3404f9cf,PennController,169,0,prac_block_b,NULL,Image,fixation_cross,Print,NA,1675958461936,dominoes,Slide1Practice_b.PNG,NULL
1675959076,39d1bfacd5f6a48190c3156b3404f9cf,PennController,169,0,prac_block_b,NULL,Timer,prac_trial_b,Start,Start,1675958462441,dominoes,Slide1Practice_b.PNG,NULL
1675959076,39d1bfacd5f6a48190c3156b3404f9cf,PennController,169,0,prac_block_b,NULL,Timer,prac_trial_b,End,End,1675958464443,dominoes,Slide1Practice_b.PNG,NULL
1675959076,39d1bfacd5f6a48190c3156b3404f9cf,PennController,169,0,prac_block_b,NULL,Timer,prac_a_posttrial,Start,Start,1675958464444,dominoes,Slide1Practice_b.PNG,NULL
1675959076,39d1bfacd5f6a48190c3156b3404f9cf,PennController,169,0,prac_block_b,NULL,PennController,163,_Trial_,End,1675958465444,dominoes,Slide1Practice_b.PNG,NULL
1675959076,39d1bfacd5f6a48190c3156b3404f9cf,PennController,169,0,prac_block_b,NULL,Timer,prac_a_posttrial,End,End,1675958465444,dominoes,Slide1Practice_b.PNG,NULL
1675959076,39d1bfacd5f6a48190c3156b3404f9cf,PennController,173,0,prac_block_b,NULL,PennController,167,_Trial_,Start,1675958465448,box,Slide5Practice_b.PNG,NULL
1675959076,39d1bfacd5f6a48190c3156b3404f9cf,PennController,173,0,prac_block_b,NULL,Image,fixation_cross,Print,NA,1675958465450,box,Slide5Practice_b.PNG,NULL
1675959076,39d1bfacd5f6a48190c3156b3404f9cf,PennController,173,0,prac_block_b,NULL,Timer,prac_trial_b,Start,Start,1675958465952,box,Slide5Practice_b.PNG,NULL
1675959076,39d1bfacd5f6a48190c3156b3404f9cf,PennController,173,0,prac_block_b,NULL,Timer,prac_trial_b,End,End,1675958467954,box,Slide5Practice_b.PNG,NULL
1675959076,39d1bfacd5f6a48190c3156b3404f9cf,PennController,173,0,prac_block_b,NULL,Timer,prac_a_posttrial,Start,Start,1675958467955,box,Slide5Practice_b.PNG,NULL
1675959076,39d1bfacd5f6a48190c3156b3404f9cf,PennController,173,0,prac_block_b,NULL,PennController,167,_Trial_,End,1675958468956,box,Slide5Practice_b.PNG,NULL
1675959076,39d1bfacd5f6a48190c3156b3404f9cf,PennController,173,0,prac_block_b,NULL,Timer,prac_a_posttrial,End,End,1675958468956,box,Slide5Practice_b.PNG,NULL
1675959076,39d1bfacd5f6a48190c3156b3404f9cf,PennController,170,0,prac_block_b,NULL,PennController,164,_Trial_,Start,1675958468960,leg,Slide2Practice_b.PNG,NULL
1675959076,39d1bfacd5f6a48190c3156b3404f9cf,PennController,170,0,prac_block_b,NULL,Image,fixation_cross,Print,NA,1675958468961,leg,Slide2Practice_b.PNG,NULL
1675959076,39d1bfacd5f6a48190c3156b3404f9cf,PennController,170,0,prac_block_b,NULL,Timer,prac_trial_b,Start,Start,1675958469464,leg,Slide2Practice_b.PNG,NULL
1675959076,39d1bfacd5f6a48190c3156b3404f9cf,PennController,170,0,prac_block_b,NULL,Timer,prac_trial_b,End,End,1675958471464,leg,Slide2Practice_b.PNG,NULL
1675959076,39d1bfacd5f6a48190c3156b3404f9cf,PennController,170,0,prac_block_b,NULL,Timer,prac_a_posttrial,Start,Start,1675958471465,leg,Slide2Practice_b.PNG,NULL
1675959076,39d1bfacd5f6a48190c3156b3404f9cf,PennController,170,0,prac_block_b,NULL,Timer,prac_a_posttrial,End,End,1675958472468,leg,Slide2Practice_b.PNG,NULL
1675959076,39d1bfacd5f6a48190c3156b3404f9cf,PennController,170,0,prac_block_b,NULL,PennController,164,_Trial_,End,1675958472470,leg,Slide2Practice_b.PNG,NULL
1675959076,39d1bfacd5f6a48190c3156b3404f9cf,PennController,172,0,prac_block_b,NULL,PennController,166,_Trial_,Start,1675958472473,chocolate,Slide4Practice_b.PNG,NULL
1675959076,39d1bfacd5f6a48190c3156b3404f9cf,PennController,172,0,prac_block_b,NULL,Image,fixation_cross,Print,NA,1675958472475,chocolate,Slide4Practice_b.PNG,NULL
1675959076,39d1bfacd5f6a48190c3156b3404f9cf,PennController,172,0,prac_block_b,NULL,Timer,prac_trial_b,Start,Start,1675958472979,chocolate,Slide4Practice_b.PNG,NULL
1675959076,39d1bfacd5f6a48190c3156b3404f9cf,PennController,172,0,prac_block_b,NULL,Timer,prac_trial_b,End,End,1675958474983,chocolate,Slide4Practice_b.PNG,NULL
1675959076,39d1bfacd5f6a48190c3156b3404f9cf,PennController,172,0,prac_block_b,NULL,Timer,prac_a_posttrial,Start,Start,1675958474984,chocolate,Slide4Practice_b.PNG,NULL
1675959076,39d1bfacd5f6a48190c3156b3404f9cf,PennController,172,0,prac_block_b,NULL,PennController,166,_Trial_,End,1675958475988,chocolate,Slide4Practice_b.PNG,NULL
1675959076,39d1bfacd5f6a48190c3156b3404f9cf,PennController,172,0,prac_block_b,NULL,Timer,prac_a_posttrial,End,End,1675958475988,chocolate,Slide4Practice_b.PNG,NULL
1675959076,39d1bfacd5f6a48190c3156b3404f9cf,PennController,171,0,prac_block_b,NULL,PennController,165,_Trial_,Start,1675958475990,bomb,Slide3Practice_b.PNG,NULL
1675959076,39d1bfacd5f6a48190c3156b3404f9cf,PennController,171,0,prac_block_b,NULL,Image,fixation_cross,Print,NA,1675958475991,bomb,Slide3Practice_b.PNG,NULL
1675959076,39d1bfacd5f6a48190c3156b3404f9cf,PennController,171,0,prac_block_b,NULL,Timer,prac_trial_b,Start,Start,1675958476498,bomb,Slide3Practice_b.PNG,NULL
1675959076,39d1bfacd5f6a48190c3156b3404f9cf,PennController,171,0,prac_block_b,NULL,Timer,prac_a_posttrial,Start,Start,1675958478498,bomb,Slide3Practice_b.PNG,NULL
1675959076,39d1bfacd5f6a48190c3156b3404f9cf,PennController,171,0,prac_block_b,NULL,Timer,prac_trial_b,End,End,1675958478498,bomb,Slide3Practice_b.PNG,NULL
1675959076,39d1bfacd5f6a48190c3156b3404f9cf,PennController,171,0,prac_block_b,NULL,Timer,prac_a_posttrial,End,End,1675958479502,bomb,Slide3Practice_b.PNG,NULL
1675959076,39d1bfacd5f6a48190c3156b3404f9cf,PennController,171,0,prac_block_b,NULL,PennController,165,_Trial_,End,1675958479503,bomb,Slide3Practice_b.PNG,NULL
# 13. Comments.
1675959076,39d1bfacd5f6a48190c3156b3404f9cf,PennController,4,0,preload_experiment_intro,NULL,PennController,Preloader-4,_Trial_,End,1675958479507,NULL
1675959076,39d1bfacd5f6a48190c3156b3404f9cf,PennController,4,0,preload_experiment_intro,NULL,PennController,Preloader-4,_Trial_,Start,1675958479507,NULL
1675959076,39d1bfacd5f6a48190c3156b3404f9cf,PennController,174,0,experiment_intro,NULL,PennController,168,_Trial_,Start,1675958479510,NULL
1675959076,39d1bfacd5f6a48190c3156b3404f9cf,PennController,174,0,experiment_intro,NULL,PennController,168,_Trial_,End,1675958490460,NULL
1675959076,39d1bfacd5f6a48190c3156b3404f9cf,PennController,5,0,preload_list_b_naming,NULL,PennController,Preloader-5,_Trial_,End,1675958490463,NULL
1675959076,39d1bfacd5f6a48190c3156b3404f9cf,PennController,5,0,preload_list_b_naming,NULL,PennController,Preloader-5,_Trial_,Start,1675958490463,NULL
# 13. List.
# 14. Target.
# 15. Slide.
# 16. Comments.
1675959076,39d1bfacd5f6a48190c3156b3404f9cf,PennController,184,0,list_b_naming,NULL,PennController,178,_Trial_,Start,1675958490464,b,dolphin,Slide16b.PNG,NULL
1675959076,39d1bfacd5f6a48190c3156b3404f9cf,PennController,184,0,list_b_naming,NULL,Image,fixation_cross,Print,NA,1675958490465,b,dolphin,Slide16b.PNG,NULL
1675959076,39d1bfacd5f6a48190c3156b3404f9cf,PennController,184,0,list_b_naming,NULL,MediaRecorder,5f9531aba2e73437e84922d0_session1_listb_naming,Recording,Start,1675958491031,b,dolphin,Slide16b.PNG,NULL
1675959076,39d1bfacd5f6a48190c3156b3404f9cf,PennController,184,0,list_b_naming,NULL,Timer,list_b_naming_timer,Start,Start,1675958491033,b,dolphin,Slide16b.PNG,NULL
1675959076,39d1bfacd5f6a48190c3156b3404f9cf,PennController,184,0,list_b_naming,NULL,Timer,list_b_naming_timer,End,End,1675958493033,b,dolphin,Slide16b.PNG,NULL
1675959076,39d1bfacd5f6a48190c3156b3404f9cf,PennController,184,0,list_b_naming,NULL,Timer,blank_timer,Start,Start,1675958493034,b,dolphin,Slide16b.PNG,NULL
1675959076,39d1bfacd5f6a48190c3156b3404f9cf,PennController,184,0,list_b_naming,NULL,Timer,blank_timer,End,End,1675958494034,b,dolphin,Slide16b.PNG,NULL
1675959076,39d1bfacd5f6a48190c3156b3404f9cf,PennController,184,0,list_b_naming,NULL,PennController,178,_Trial_,End,1675958494039,b,dolphin,Slide16b.PNG,NULL
1675959076,39d1bfacd5f6a48190c3156b3404f9cf,PennController,184,0,list_b_naming,NULL,MediaRecorder,5f9531aba2e73437e84922d0_session1_listb_naming,Recording,Stop,1675958494039,b,dolphin,Slide16b.PNG,NULL
1675959076,39d1bfacd5f6a48190c3156b3404f9cf,PennController,184,0,list_b_naming,NULL,MediaRecorder,5f9531aba2e73437e84922d0_session1_listb_naming,Filename,5f9531aba2e73437e84922d0_session1_listb_naming.webm,1675958494039,b,dolphin,Slide16b.PNG,NULL
1675959076,39d1bfacd5f6a48190c3156b3404f9cf,PennController,243,0,list_b_naming,NULL,Image,fixation_cross,Print,NA,1675958494041,b,cage,Slide77b.PNG,NULL
1675959076,39d1bfacd5f6a48190c3156b3404f9cf,PennController,243,0,list_b_naming,NULL,PennController,237,_Trial_,Start,1675958494041,b,cage,Slide77b.PNG,NULL
1675959076,39d1bfacd5f6a48190c3156b3404f9cf,PennController,243,0,list_b_naming,NULL,MediaRecorder,5f9531aba2e73437e84922d0_session1_listb_naming,Recording,Start,1675958494601,b,cage,Slide77b.PNG,NULL
1675959076,39d1bfacd5f6a48190c3156b3404f9cf,PennController,243,0,list_b_naming,NULL,Timer,list_b_naming_timer,Start,Start,1675958494602,b,cage,Slide77b.PNG,NULL
1675959076,39d1bfacd5f6a48190c3156b3404f9cf,PennController,243,0,list_b_naming,NULL,Timer,blank_timer,Start,Start,1675958496605,b,cage,Slide77b.PNG,NULL
1675959076,39d1bfacd5f6a48190c3156b3404f9cf,PennController,243,0,list_b_naming,NULL,Timer,list_b_naming_timer,End,End,1675958496605,b,cage,Slide77b.PNG,NULL
1675959076,39d1bfacd5f6a48190c3156b3404f9cf,PennController,243,0,list_b_naming,NULL,Timer,blank_timer,End,End,1675958497605,b,cage,Slide77b.PNG,NULL
1675959076,39d1bfacd5f6a48190c3156b3404f9cf,PennController,243,0,list_b_naming,NULL,PennController,237,_Trial_,End,1675958497609,b,cage,Slide77b.PNG,NULL
1675959076,39d1bfacd5f6a48190c3156b3404f9cf,PennController,243,0,list_b_naming,NULL,MediaRecorder,5f9531aba2e73437e84922d0_session1_listb_naming,Recording,Stop,1675958497609,b,cage,Slide77b.PNG,NULL
1675959076,39d1bfacd5f6a48190c3156b3404f9cf,PennController,243,0,list_b_naming,NULL,MediaRecorder,5f9531aba2e73437e84922d0_session1_listb_naming,Filename,5f9531aba2e73437e84922d0_session1_listb_naming-1.webm,1675958497609,b,cage,Slide77b.PNG,NULL
1675959076,39d1bfacd5f6a48190c3156b3404f9cf,PennController,190,0,list_b_naming,NULL,PennController,184,_Trial_,Start,1675958497611,b,printer,Slide22b.PNG,NULL
1675959076,39d1bfacd5f6a48190c3156b3404f9cf,PennController,190,0,list_b_naming,NULL,Image,fixation_cross,Print,NA,1675958497612,b,printer,Slide22b.PNG,NULL
1675959076,39d1bfacd5f6a48190c3156b3404f9cf,PennController,190,0,list_b_naming,NULL,MediaRecorder,5f9531aba2e73437e84922d0_session1_listb_naming,Recording,Start,1675958498170,b,printer,Slide22b.PNG,NULL
1675959076,39d1bfacd5f6a48190c3156b3404f9cf,PennController,190,0,list_b_naming,NULL,Timer,list_b_naming_timer,Start,Start,1675958498171,b,printer,Slide22b.PNG,NULL
1675959076,39d1bfacd5f6a48190c3156b3404f9cf,PennController,190,0,list_b_naming,NULL,Timer,list_b_naming_timer,End,End,1675958500173,b,printer,Slide22b.PNG,NULL
1675959076,39d1bfacd5f6a48190c3156b3404f9cf,PennController,190,0,list_b_naming,NULL,Timer,blank_timer,Start,Start,1675958500174,b,printer,Slide22b.PNG,NULL
1675959076,39d1bfacd5f6a48190c3156b3404f9cf,PennController,190,0,list_b_naming,NULL,Timer,blank_timer,End,End,1675958501175,b,printer,Slide22b.PNG,NULL
1675959076,39d1bfacd5f6a48190c3156b3404f9cf,PennController,190,0,list_b_naming,NULL,MediaRecorder,5f9531aba2e73437e84922d0_session1_listb_naming,Recording,Stop,1675958501177,b,printer,Slide22b.PNG,NULL
1675959076,39d1bfacd5f6a48190c3156b3404f9cf,PennController,190,0,list_b_naming,NULL,PennController,184,_Trial_,End,1675958501178,b,printer,Slide22b.PNG,NULL
1675959076,39d1bfacd5f6a48190c3156b3404f9cf,PennController,190,0,list_b_naming,NULL,MediaRecorder,5f9531aba2e73437e84922d0_session1_listb_naming,Filename,5f9531aba2e73437e84922d0_session1_listb_naming-2.webm,1675958501178,b,printer,Slide22b.PNG,NULL
1675959076,39d1bfacd5f6a48190c3156b3404f9cf,PennController,306,0,list_b_naming,NULL,PennController,300,_Trial_,Start,1675958501179,b,bin,Slide142b.PNG,NULL
1675959076,39d1bfacd5f6a48190c3156b3404f9cf,PennController,306,0,list_b_naming,NULL,Image,fixation_cross,Print,NA,1675958501181,b,bin,Slide142b.PNG,NULL
1675959076,39d1bfacd5f6a48190c3156b3404f9cf,PennController,306,0,list_b_naming,NULL,MediaRecorder,5f9531aba2e73437e84922d0_session1_listb_naming,Recording,Start,1675958501740,b,bin,Slide142b.PNG,NULL
1675959076,39d1bfacd5f6a48190c3156b3404f9cf,PennController,306,0,list_b_naming,NULL,Timer,list_b_naming_timer,Start,Start,1675958501741,b,bin,Slide142b.PNG,NULL
1675959076,39d1bfacd5f6a48190c3156b3404f9cf,PennController,306,0,list_b_naming,NULL,Timer,blank_timer,Start,Start,1675958503743,b,bin,Slide142b.PNG,NULL
1675959076,39d1bfacd5f6a48190c3156b3404f9cf,PennController,306,0,list_b_naming,NULL,Timer,list_b_naming_timer,End,End,1675958503743,b,bin,Slide142b.PNG,NULL
1675959076,39d1bfacd5f6a48190c3156b3404f9cf,PennController,306,0,list_b_naming,NULL,Timer,blank_timer,End,End,1675958504747,b,bin,Slide142b.PNG,NULL
1675959076,39d1bfacd5f6a48190c3156b3404f9cf,PennController,306,0,list_b_naming,NULL,PennController,300,_Trial_,End,1675958504752,b,bin,Slide142b.PNG,NULL
1675959076,39d1bfacd5f6a48190c3156b3404f9cf,PennController,306,0,list_b_naming,NULL,MediaRecorder,5f9531aba2e73437e84922d0_session1_listb_naming,Recording,Stop,1675958504752,b,bin,Slide142b.PNG,NULL
1675959076,39d1bfacd5f6a48190c3156b3404f9cf,PennController,306,0,list_b_naming,NULL,MediaRecorder,5f9531aba2e73437e84922d0_session1_listb_naming,Filename,5f9531aba2e73437e84922d0_session1_listb_naming-3.webm,1675958504752,b,bin,Slide142b.PNG,NULL
1675959076,39d1bfacd5f6a48190c3156b3404f9cf,PennController,191,0,list_b_naming,NULL,PennController,185,_Trial_,Start,1675958504755,b,tooth,Slide23b.PNG,NULL
1675959076,39d1bfacd5f6a48190c3156b3404f9cf,PennController,191,0,list_b_naming,NULL,Image,fixation_cross,Print,NA,1675958504756,b,tooth,Slide23b.PNG,NULL
1675959076,39d1bfacd5f6a48190c3156b3404f9cf,PennController,191,0,list_b_naming,NULL,MediaRecorder,5f9531aba2e73437e84922d0_session1_listb_naming,Recording,Start,1675958505320,b,tooth,Slide23b.PNG,NULL
1675959076,39d1bfacd5f6a48190c3156b3404f9cf,PennController,191,0,list_b_naming,NULL,Timer,list_b_naming_timer,Start,Start,1675958505321,b,tooth,Slide23b.PNG,NULL
1675959076,39d1bfacd5f6a48190c3156b3404f9cf,PennController,191,0,list_b_naming,NULL,Timer,list_b_naming_timer,End,End,1675958507321,b,tooth,Slide23b.PNG,NULL
1675959076,39d1bfacd5f6a48190c3156b3404f9cf,PennController,191,0,list_b_naming,NULL,Timer,blank_timer,Start,Start,1675958507322,b,tooth,Slide23b.PNG,NULL
1675959076,39d1bfacd5f6a48190c3156b3404f9cf,PennController,191,0,list_b_naming,NULL,Timer,blank_timer,End,End,1675958508325,b,tooth,Slide23b.PNG,NULL
1675959076,39d1bfacd5f6a48190c3156b3404f9cf,PennController,191,0,list_b_naming,NULL,MediaRecorder,5f9531aba2e73437e84922d0_session1_listb_naming,Recording,Stop,1675958508331,b,tooth,Slide23b.PNG,NULL
1675959076,39d1bfacd5f6a48190c3156b3404f9cf,PennController,191,0,list_b_naming,NULL,PennController,185,_Trial_,End,1675958508332,b,tooth,Slide23b.PNG,NULL
1675959076,39d1bfacd5f6a48190c3156b3404f9cf,PennController,191,0,list_b_naming,NULL,MediaRecorder,5f9531aba2e73437e84922d0_session1_listb_naming,Filename,5f9531aba2e73437e84922d0_session1_listb_naming-4.webm,1675958508332,b,tooth,Slide23b.PNG,NULL
1675959076,39d1bfacd5f6a48190c3156b3404f9cf,PennController,181,0,list_b_naming,NULL,PennController,175,_Trial_,Start,1675958508334,b,broccoli,Slide13b.PNG,NULL
1675959076,39d1bfacd5f6a48190c3156b3404f9cf,PennController,181,0,list_b_naming,NULL,Image,fixation_cross,Print,NA,1675958508335,b,broccoli,Slide13b.PNG,NULL
1675959076,39d1bfacd5f6a48190c3156b3404f9cf,PennController,181,0,list_b_naming,NULL,MediaRecorder,5f9531aba2e73437e84922d0_session1_listb_naming,Recording,Start,1675958508900,b,broccoli,Slide13b.PNG,NULL
1675959076,39d1bfacd5f6a48190c3156b3404f9cf,PennController,181,0,list_b_naming,NULL,Timer,list_b_naming_timer,Start,Start,1675958508901,b,broccoli,Slide13b.PNG,NULL
1675959076,39d1bfacd5f6a48190c3156b3404f9cf,PennController,181,0,list_b_naming,NULL,Timer,blank_timer,Start,Start,1675958510903,b,broccoli,Slide13b.PNG,NULL
1675959076,39d1bfacd5f6a48190c3156b3404f9cf,PennController,181,0,list_b_naming,NULL,Timer,list_b_naming_timer,End,End,1675958510903,b,broccoli,Slide13b.PNG,NULL
1675959076,39d1bfacd5f6a48190c3156b3404f9cf,PennController,181,0,list_b_naming,NULL,Timer,blank_timer,End,End,1675958511904,b,broccoli,Slide13b.PNG,NULL
1675959076,39d1bfacd5f6a48190c3156b3404f9cf,PennController,181,0,list_b_naming,NULL,MediaRecorder,5f9531aba2e73437e84922d0_session1_listb_naming,Recording,Stop,1675958511909,b,broccoli,Slide13b.PNG,NULL
1675959076,39d1bfacd5f6a48190c3156b3404f9cf,PennController,181,0,list_b_naming,NULL,PennController,175,_Trial_,End,1675958511910,b,broccoli,Slide13b.PNG,NULL
1675959076,39d1bfacd5f6a48190c3156b3404f9cf,PennController,181,0,list_b_naming,NULL,MediaRecorder,5f9531aba2e73437e84922d0_session1_listb_naming,Filename,5f9531aba2e73437e84922d0_session1_listb_naming-5.webm,1675958511910,b,broccoli,Slide13b.PNG,NULL
1675959076,39d1bfacd5f6a48190c3156b3404f9cf,PennController,317,0,list_b_naming,NULL,PennController,311,_Trial_,Start,1675958511913,b,coffin,Slide153b.PNG,NULL
1675959076,39d1bfacd5f6a48190c3156b3404f9cf,PennController,317,0,list_b_naming,NULL,Image,fixation_cross,Print,NA,1675958511914,b,coffin,Slide153b.PNG,NULL
1675959076,39d1bfacd5f6a48190c3156b3404f9cf,PennController,317,0,list_b_naming,NULL,MediaRecorder,5f9531aba2e73437e84922d0_session1_listb_naming,Recording,Start,1675958512471,b,coffin,Slide153b.PNG,NULL
1675959076,39d1bfacd5f6a48190c3156b3404f9cf,PennController,317,0,list_b_naming,NULL,Timer,list_b_naming_timer,Start,Start,1675958512472,b,coffin,Slide153b.PNG,NULL
1675959076,39d1bfacd5f6a48190c3156b3404f9cf,PennController,317,0,list_b_naming,NULL,Timer,list_b_naming_timer,End,End,1675958514473,b,coffin,Slide153b.PNG,NULL
1675959076,39d1bfacd5f6a48190c3156b3404f9cf,PennController,317,0,list_b_naming,NULL,Timer,blank_timer,Start,Start,1675958514474,b,coffin,Slide153b.PNG,NULL
1675959076,39d1bfacd5f6a48190c3156b3404f9cf,PennController,317,0,list_b_naming,NULL,Timer,blank_timer,End,End,1675958515475,b,coffin,Slide153b.PNG,NULL
1675959076,39d1bfacd5f6a48190c3156b3404f9cf,PennController,317,0,list_b_naming,NULL,PennController,311,_Trial_,End,1675958515482,b,coffin,Slide153b.PNG,NULL
1675959076,39d1bfacd5f6a48190c3156b3404f9cf,PennController,317,0,list_b_naming,NULL,MediaRecorder,5f9531aba2e73437e84922d0_session1_listb_naming,Recording,Stop,1675958515482,b,coffin,Slide153b.PNG,NULL
1675959076,39d1bfacd5f6a48190c3156b3404f9cf,PennController,317,0,list_b_naming,NULL,MediaRecorder,5f9531aba2e73437e84922d0_session1_listb_naming,Filename,5f9531aba2e73437e84922d0_session1_listb_naming-6.webm,1675958515482,b,coffin,Slide153b.PNG,NULL
1675959076,39d1bfacd5f6a48190c3156b3404f9cf,PennController,305,0,list_b_naming,NULL,PennController,299,_Trial_,Start,1675958515484,b,crown,Slide141b.PNG,NULL
1675959076,39d1bfacd5f6a48190c3156b3404f9cf,PennController,305,0,list_b_naming,NULL,Image,fixation_cross,Print,NA,1675958515485,b,crown,Slide141b.PNG,NULL
1675959076,39d1bfacd5f6a48190c3156b3404f9cf,PennController,305,0,list_b_naming,NULL,MediaRecorder,5f9531aba2e73437e84922d0_session1_listb_naming,Recording,Start,1675958516051,b,crown,Slide141b.PNG,NULL
1675959076,39d1bfacd5f6a48190c3156b3404f9cf,PennController,305,0,list_b_naming,NULL,Timer,list_b_naming_timer,Start,Start,1675958516051,b,crown,Slide141b.PNG,NULL
1675959076,39d1bfacd5f6a48190c3156b3404f9cf,PennController,305,0,list_b_naming,NULL,Timer,list_b_naming_timer,End,End,1675958518054,b,crown,Slide141b.PNG,NULL
1675959076,39d1bfacd5f6a48190c3156b3404f9cf,PennController,305,0,list_b_naming,NULL,Timer,blank_timer,Start,Start,1675958518055,b,crown,Slide141b.PNG,NULL
1675959076,39d1bfacd5f6a48190c3156b3404f9cf,PennController,305,0,list_b_naming,NULL,Timer,blank_timer,End,End,1675958519058,b,crown,Slide141b.PNG,NULL
1675959076,39d1bfacd5f6a48190c3156b3404f9cf,PennController,305,0,list_b_naming,NULL,PennController,299,_Trial_,End,1675958519065,b,crown,Slide141b.PNG,NULL
1675959076,39d1bfacd5f6a48190c3156b3404f9cf,PennController,305,0,list_b_naming,NULL,MediaRecorder,5f9531aba2e73437e84922d0_session1_listb_naming,Recording,Stop,1675958519065,b,crown,Slide141b.PNG,NULL
1675959076,39d1bfacd5f6a48190c3156b3404f9cf,PennController,305,0,list_b_naming,NULL,MediaRecorder,5f9531aba2e73437e84922d0_session1_listb_naming,Filename,5f9531aba2e73437e84922d0_session1_listb_naming-7.webm,1675958519065,b,crown,Slide141b.PNG,NULL
1675959076,39d1bfacd5f6a48190c3156b3404f9cf,PennController,285,0,list_b_naming,NULL,PennController,279,_Trial_,Start,1675958519068,b,caravan,Slide121b.PNG,NULL
1675959076,39d1bfacd5f6a48190c3156b3404f9cf,PennController,285,0,list_b_naming,NULL,Image,fixation_cross,Print,NA,1675958519069,b,caravan,Slide121b.PNG,NULL
1675959076,39d1bfacd5f6a48190c3156b3404f9cf,PennController,285,0,list_b_naming,NULL,MediaRecorder,5f9531aba2e73437e84922d0_session1_listb_naming,Recording,Start,1675958519631,b,caravan,Slide121b.PNG,NULL
1675959076,39d1bfacd5f6a48190c3156b3404f9cf,PennController,285,0,list_b_naming,NULL,Timer,list_b_naming_timer,Start,Start,1675958519632,b,caravan,Slide121b.PNG,NULL
1675959076,39d1bfacd5f6a48190c3156b3404f9cf,PennController,285,0,list_b_naming,NULL,Timer,list_b_naming_timer,End,End,1675958521632,b,caravan,Slide121b.PNG,NULL
1675959076,39d1bfacd5f6a48190c3156b3404f9cf,PennController,285,0,list_b_naming,NULL,Timer,blank_timer,Start,Start,1675958521633,b,caravan,Slide121b.PNG,NULL
1675959076,39d1bfacd5f6a48190c3156b3404f9cf,PennController,285,0,list_b_naming,NULL,Timer,blank_timer,End,End,1675958522637,b,caravan,Slide121b.PNG,NULL
1675959076,39d1bfacd5f6a48190c3156b3404f9cf,PennController,285,0,list_b_naming,NULL,PennController,279,_Trial_,End,1675958522642,b,caravan,Slide121b.PNG,NULL
1675959076,39d1bfacd5f6a48190c3156b3404f9cf,PennController,285,0,list_b_naming,NULL,MediaRecorder,5f9531aba2e73437e84922d0_session1_listb_naming,Recording,Stop,1675958522642,b,caravan,Slide121b.PNG,NULL
1675959076,39d1bfacd5f6a48190c3156b3404f9cf,PennController,285,0,list_b_naming,NULL,MediaRecorder,5f9531aba2e73437e84922d0_session1_listb_naming,Filename,5f9531aba2e73437e84922d0_session1_listb_naming-8.webm,1675958522642,b,caravan,Slide121b.PNG,NULL
1675959076,39d1bfacd5f6a48190c3156b3404f9cf,PennController,199,0,list_b_naming,NULL,PennController,193,_Trial_,Start,1675958522648,b,spoon,Slide31b.PNG,NULL
1675959076,39d1bfacd5f6a48190c3156b3404f9cf,PennController,199,0,list_b_naming,NULL,Image,fixation_cross,Print,NA,1675958522650,b,spoon,Slide31b.PNG,NULL
1675959076,39d1bfacd5f6a48190c3156b3404f9cf,PennController,199,0,list_b_naming,NULL,MediaRecorder,5f9531aba2e73437e84922d0_session1_listb_naming,Recording,Start,1675958523212,b,spoon,Slide31b.PNG,NULL
1675959076,39d1bfacd5f6a48190c3156b3404f9cf,PennController,199,0,list_b_naming,NULL,Timer,list_b_naming_timer,Start,Start,1675958523214,b,spoon,Slide31b.PNG,NULL
1675959076,39d1bfacd5f6a48190c3156b3404f9cf,PennController,199,0,list_b_naming,NULL,Timer,list_b_naming_timer,End,End,1675958525217,b,spoon,Slide31b.PNG,NULL
1675959076,39d1bfacd5f6a48190c3156b3404f9cf,PennController,199,0,list_b_naming,NULL,Timer,blank_timer,Start,Start,1675958525218,b,spoon,Slide31b.PNG,NULL
1675959076,39d1bfacd5f6a48190c3156b3404f9cf,PennController,199,0,list_b_naming,NULL,Timer,blank_timer,End,End,1675958526221,b,spoon,Slide31b.PNG,NULL
1675959076,39d1bfacd5f6a48190c3156b3404f9cf,PennController,199,0,list_b_naming,NULL,MediaRecorder,5f9531aba2e73437e84922d0_session1_listb_naming,Recording,Stop,1675958526226,b,spoon,Slide31b.PNG,NULL
1675959076,39d1bfacd5f6a48190c3156b3404f9cf,PennController,199,0,list_b_naming,NULL,PennController,193,_Trial_,End,1675958526227,b,spoon,Slide31b.PNG,NULL
1675959076,39d1bfacd5f6a48190c3156b3404f9cf,PennController,199,0,list_b_naming,NULL,MediaRecorder,5f9531aba2e73437e84922d0_session1_listb_naming,Filename,5f9531aba2e73437e84922d0_session1_listb_naming-9.webm,1675958526227,b,spoon,Slide31b.PNG,NULL
1675959076,39d1bfacd5f6a48190c3156b3404f9cf,PennController,204,0,list_b_naming,NULL,PennController,198,_Trial_,Start,1675958526231,b,skeleton,Slide36b.PNG,NULL
1675959076,39d1bfacd5f6a48190c3156b3404f9cf,PennController,204,0,list_b_naming,NULL,Image,fixation_cross,Print,NA,1675958526232,b,skeleton,Slide36b.PNG,NULL
1675959076,39d1bfacd5f6a48190c3156b3404f9cf,PennController,204,0,list_b_naming,NULL,MediaRecorder,5f9531aba2e73437e84922d0_session1_listb_naming,Recording,Start,1675958526790,b,skeleton,Slide36b.PNG,NULL
1675959076,39d1bfacd5f6a48190c3156b3404f9cf,PennController,204,0,list_b_naming,NULL,Timer,list_b_naming_timer,Start,Start,1675958526791,b,skeleton,Slide36b.PNG,NULL
1675959076,39d1bfacd5f6a48190c3156b3404f9cf,PennController,204,0,list_b_naming,NULL,Timer,list_b_naming_timer,End,End,1675958528792,b,skeleton,Slide36b.PNG,NULL
1675959076,39d1bfacd5f6a48190c3156b3404f9cf,PennController,204,0,list_b_naming,NULL,Timer,blank_timer,Start,Start,1675958528793,b,skeleton,Slide36b.PNG,NULL
1675959076,39d1bfacd5f6a48190c3156b3404f9cf,PennController,204,0,list_b_naming,NULL,Timer,blank_timer,End,End,1675958529793,b,skeleton,Slide36b.PNG,NULL
1675959076,39d1bfacd5f6a48190c3156b3404f9cf,PennController,204,0,list_b_naming,NULL,PennController,198,_Trial_,End,1675958529797,b,skeleton,Slide36b.PNG,NULL
1675959076,39d1bfacd5f6a48190c3156b3404f9cf,PennController,204,0,list_b_naming,NULL,MediaRecorder,5f9531aba2e73437e84922d0_session1_listb_naming,Recording,Stop,1675958529797,b,skeleton,Slide36b.PNG,NULL
1675959076,39d1bfacd5f6a48190c3156b3404f9cf,PennController,204,0,list_b_naming,NULL,MediaRecorder,5f9531aba2e73437e84922d0_session1_listb_naming,Filename,5f9531aba2e73437e84922d0_session1_listb_naming-10.webm,1675958529797,b,skeleton,Slide36b.PNG,NULL
1675959076,39d1bfacd5f6a48190c3156b3404f9cf,PennController,275,0,list_b_naming,NULL,PennController,269,_Trial_,Start,1675958529800,b,cowboy,Slide110b.PNG,NULL
1675959076,39d1bfacd5f6a48190c3156b3404f9cf,PennController,275,0,list_b_naming,NULL,Image,fixation_cross,Print,NA,1675958529801,b,cowboy,Slide110b.PNG,NULL
1675959076,39d1bfacd5f6a48190c3156b3404f9cf,PennController,275,0,list_b_naming,NULL,MediaRecorder,5f9531aba2e73437e84922d0_session1_listb_naming,Recording,Start,1675958530362,b,cowboy,Slide110b.PNG,NULL
1675959076,39d1bfacd5f6a48190c3156b3404f9cf,PennController,275,0,list_b_naming,NULL,Timer,list_b_naming_timer,Start,Start,1675958530363,b,cowboy,Slide110b.PNG,NULL
1675959076,39d1bfacd5f6a48190c3156b3404f9cf,PennController,275,0,list_b_naming,NULL,Timer,blank_timer,Start,Start,1675958532364,b,cowboy,Slide110b.PNG,NULL
1675959076,39d1bfacd5f6a48190c3156b3404f9cf,PennController,275,0,list_b_naming,NULL,Timer,list_b_naming_timer,End,End,1675958532364,b,cowboy,Slide110b.PNG,NULL
1675959076,39d1bfacd5f6a48190c3156b3404f9cf,PennController,275,0,list_b_naming,NULL,Timer,blank_timer,End,End,1675958533364,b,cowboy,Slide110b.PNG,NULL
1675959076,39d1bfacd5f6a48190c3156b3404f9cf,PennController,275,0,list_b_naming,NULL,MediaRecorder,5f9531aba2e73437e84922d0_session1_listb_naming,Recording,Stop,1675958533367,b,cowboy,Slide110b.PNG,NULL
1675959076,39d1bfacd5f6a48190c3156b3404f9cf,PennController,275,0,list_b_naming,NULL,PennController,269,_Trial_,End,1675958533368,b,cowboy,Slide110b.PNG,NULL
1675959076,39d1bfacd5f6a48190c3156b3404f9cf,PennController,275,0,list_b_naming,NULL,MediaRecorder,5f9531aba2e73437e84922d0_session1_listb_naming,Filename,5f9531aba2e73437e84922d0_session1_listb_naming-11.webm,1675958533368,b,cowboy,Slide110b.PNG,NULL
1675959076,39d1bfacd5f6a48190c3156b3404f9cf,PennController,209,0,list_b_naming,NULL,PennController,203,_Trial_,Start,1675958533369,b,feather,Slide41b.PNG,NULL
1675959076,39d1bfacd5f6a48190c3156b3404f9cf,PennController,209,0,list_b_naming,NULL,Image,fixation_cross,Print,NA,1675958533370,b,feather,Slide41b.PNG,NULL
1675959076,39d1bfacd5f6a48190c3156b3404f9cf,PennController,209,0,list_b_naming,NULL,MediaRecorder,5f9531aba2e73437e84922d0_session1_listb_naming,Recording,Start,1675958533930,b,feather,Slide41b.PNG,NULL
1675959076,39d1bfacd5f6a48190c3156b3404f9cf,PennController,209,0,list_b_naming,NULL,Timer,list_b_naming_timer,Start,Start,1675958533931,b,feather,Slide41b.PNG,NULL
1675959076,39d1bfacd5f6a48190c3156b3404f9cf,PennController,209,0,list_b_naming,NULL,Timer,list_b_naming_timer,End,End,1675958535935,b,feather,Slide41b.PNG,NULL
1675959076,39d1bfacd5f6a48190c3156b3404f9cf,PennController,209,0,list_b_naming,NULL,Timer,blank_timer,Start,Start,1675958535936,b,feather,Slide41b.PNG,NULL
1675959076,39d1bfacd5f6a48190c3156b3404f9cf,PennController,209,0,list_b_naming,NULL,Timer,blank_timer,End,End,1675958536940,b,feather,Slide41b.PNG,NULL
1675959076,39d1bfacd5f6a48190c3156b3404f9cf,PennController,209,0,list_b_naming,NULL,MediaRecorder,5f9531aba2e73437e84922d0_session1_listb_naming,Recording,Stop,1675958536945,b,feather,Slide41b.PNG,NULL
1675959076,39d1bfacd5f6a48190c3156b3404f9cf,PennController,209,0,list_b_naming,NULL,PennController,203,_Trial_,End,1675958536946,b,feather,Slide41b.PNG,NULL
1675959076,39d1bfacd5f6a48190c3156b3404f9cf,PennController,209,0,list_b_naming,NULL,MediaRecorder,5f9531aba2e73437e84922d0_session1_listb_naming,Filename,5f9531aba2e73437e84922d0_session1_listb_naming-12.webm,1675958536946,b,feather,Slide41b.PNG,NULL
1675959076,39d1bfacd5f6a48190c3156b3404f9cf,PennController,237,0,list_b_naming,NULL,PennController,231,_Trial_,Start,1675958536947,b,dragon,Slide70b.PNG,NULL
1675959076,39d1bfacd5f6a48190c3156b3404f9cf,PennController,237,0,list_b_naming,NULL,Image,fixation_cross,Print,NA,1675958536948,b,dragon,Slide70b.PNG,NULL
1675959076,39d1bfacd5f6a48190c3156b3404f9cf,PennController,237,0,list_b_naming,NULL,MediaRecorder,5f9531aba2e73437e84922d0_session1_listb_naming,Recording,Start,1675958537511,b,dragon,Slide70b.PNG,NULL
1675959076,39d1bfacd5f6a48190c3156b3404f9cf,PennController,237,0,list_b_naming,NULL,Timer,list_b_naming_timer,Start,Start,1675958537512,b,dragon,Slide70b.PNG,NULL
1675959076,39d1bfacd5f6a48190c3156b3404f9cf,PennController,237,0,list_b_naming,NULL,Timer,list_b_naming_timer,End,End,1675958539515,b,dragon,Slide70b.PNG,NULL
1675959076,39d1bfacd5f6a48190c3156b3404f9cf,PennController,237,0,list_b_naming,NULL,Timer,blank_timer,Start,Start,1675958539516,b,dragon,Slide70b.PNG,NULL
1675959076,39d1bfacd5f6a48190c3156b3404f9cf,PennController,237,0,list_b_naming,NULL,Timer,blank_timer,End,End,1675958540516,b,dragon,Slide70b.PNG,NULL
1675959076,39d1bfacd5f6a48190c3156b3404f9cf,PennController,237,0,list_b_naming,NULL,PennController,231,_Trial_,End,1675958540518,b,dragon,Slide70b.PNG,NULL
1675959076,39d1bfacd5f6a48190c3156b3404f9cf,PennController,237,0,list_b_naming,NULL,MediaRecorder,5f9531aba2e73437e84922d0_session1_listb_naming,Recording,Stop,1675958540518,b,dragon,Slide70b.PNG,NULL
1675959076,39d1bfacd5f6a48190c3156b3404f9cf,PennController,237,0,list_b_naming,NULL,MediaRecorder,5f9531aba2e73437e84922d0_session1_listb_naming,Filename,5f9531aba2e73437e84922d0_session1_listb_naming-13.webm,1675958540518,b,dragon,Slide70b.PNG,NULL
1675959076,39d1bfacd5f6a48190c3156b3404f9cf,PennController,240,0,list_b_naming,NULL,Image,fixation_cross,Print,NA,1675958540519,b,lab,Slide74b.PNG,NULL
1675959076,39d1bfacd5f6a48190c3156b3404f9cf,PennController,240,0,list_b_naming,NULL,PennController,234,_Trial_,Start,1675958540519,b,lab,Slide74b.PNG,NULL
1675959076,39d1bfacd5f6a48190c3156b3404f9cf,PennController,240,0,list_b_naming,NULL,MediaRecorder,5f9531aba2e73437e84922d0_session1_listb_naming,Recording,Start,1675958541081,b,lab,Slide74b.PNG,NULL
1675959076,39d1bfacd5f6a48190c3156b3404f9cf,PennController,240,0,list_b_naming,NULL,Timer,list_b_naming_timer,Start,Start,1675958541082,b,lab,Slide74b.PNG,NULL
1675959076,39d1bfacd5f6a48190c3156b3404f9cf,PennController,240,0,list_b_naming,NULL,Timer,blank_timer,Start,Start,1675958543083,b,lab,Slide74b.PNG,NULL
1675959076,39d1bfacd5f6a48190c3156b3404f9cf,PennController,240,0,list_b_naming,NULL,Timer,list_b_naming_timer,End,End,1675958543083,b,lab,Slide74b.PNG,NULL
1675959076,39d1bfacd5f6a48190c3156b3404f9cf,PennController,240,0,list_b_naming,NULL,Timer,blank_timer,End,End,1675958544083,b,lab,Slide74b.PNG,NULL
1675959076,39d1bfacd5f6a48190c3156b3404f9cf,PennController,240,0,list_b_naming,NULL,MediaRecorder,5f9531aba2e73437e84922d0_session1_listb_naming,Recording,Stop,1675958544087,b,lab,Slide74b.PNG,NULL
1675959076,39d1bfacd5f6a48190c3156b3404f9cf,PennController,240,0,list_b_naming,NULL,PennController,234,_Trial_,End,1675958544088,b,lab,Slide74b.PNG,NULL
1675959076,39d1bfacd5f6a48190c3156b3404f9cf,PennController,240,0,list_b_naming,NULL,MediaRecorder,5f9531aba2e73437e84922d0_session1_listb_naming,Filename,5f9531aba2e73437e84922d0_session1_listb_naming-14.webm,1675958544088,b,lab,Slide74b.PNG,NULL
1675959076,39d1bfacd5f6a48190c3156b3404f9cf,PennController,254,0,list_b_naming,NULL,PennController,248,_Trial_,Start,1675958544092,b,airport,Slide88b.PNG,NULL
1675959076,39d1bfacd5f6a48190c3156b3404f9cf,PennController,254,0,list_b_naming,NULL,Image,fixation_cross,Print,NA,1675958544093,b,airport,Slide88b.PNG,NULL
1675959076,39d1bfacd5f6a48190c3156b3404f9cf,PennController,254,0,list_b_naming,NULL,MediaRecorder,5f9531aba2e73437e84922d0_session1_listb_naming,Recording,Start,1675958544651,b,airport,Slide88b.PNG,NULL
1675959076,39d1bfacd5f6a48190c3156b3404f9cf,PennController,254,0,list_b_naming,NULL,Timer,list_b_naming_timer,Start,Start,1675958544652,b,airport,Slide88b.PNG,NULL
1675959076,39d1bfacd5f6a48190c3156b3404f9cf,PennController,254,0,list_b_naming,NULL,Timer,list_b_naming_timer,End,End,1675958546654,b,airport,Slide88b.PNG,NULL
1675959076,39d1bfacd5f6a48190c3156b3404f9cf,PennController,254,0,list_b_naming,NULL,Timer,blank_timer,Start,Start,1675958546655,b,airport,Slide88b.PNG,NULL
1675959076,39d1bfacd5f6a48190c3156b3404f9cf,PennController,254,0,list_b_naming,NULL,Timer,blank_timer,End,End,1675958547655,b,airport,Slide88b.PNG,NULL
1675959076,39d1bfacd5f6a48190c3156b3404f9cf,PennController,254,0,list_b_naming,NULL,PennController,248,_Trial_,End,1675958547662,b,airport,Slide88b.PNG,NULL
1675959076,39d1bfacd5f6a48190c3156b3404f9cf,PennController,254,0,list_b_naming,NULL,MediaRecorder,5f9531aba2e73437e84922d0_session1_listb_naming,Recording,Stop,1675958547662,b,airport,Slide88b.PNG,NULL
1675959076,39d1bfacd5f6a48190c3156b3404f9cf,PennController,254,0,list_b_naming,NULL,MediaRecorder,5f9531aba2e73437e84922d0_session1_listb_naming,Filename,5f9531aba2e73437e84922d0_session1_listb_naming-15.webm,1675958547662,b,airport,Slide88b.PNG,NULL
1675959076,39d1bfacd5f6a48190c3156b3404f9cf,PennController,297,0,list_b_naming,NULL,PennController,291,_Trial_,Start,1675958547664,b,calculator,Slide133b.PNG,NULL
1675959076,39d1bfacd5f6a48190c3156b3404f9cf,PennController,297,0,list_b_naming,NULL,Image,fixation_cross,Print,NA,1675958547665,b,calculator,Slide133b.PNG,NULL
1675959076,39d1bfacd5f6a48190c3156b3404f9cf,PennController,297,0,list_b_naming,NULL,MediaRecorder,5f9531aba2e73437e84922d0_session1_listb_naming,Recording,Start,1675958548233,b,calculator,Slide133b.PNG,NULL
1675959076,39d1bfacd5f6a48190c3156b3404f9cf,PennController,297,0,list_b_naming,NULL,Timer,list_b_naming_timer,Start,Start,1675958548234,b,calculator,Slide133b.PNG,NULL
1675959076,39d1bfacd5f6a48190c3156b3404f9cf,PennController,297,0,list_b_naming,NULL,Timer,list_b_naming_timer,End,End,1675958550239,b,calculator,Slide133b.PNG,NULL
1675959076,39d1bfacd5f6a48190c3156b3404f9cf,PennController,297,0,list_b_naming,NULL,Timer,blank_timer,Start,Start,1675958550240,b,calculator,Slide133b.PNG,NULL
1675959076,39d1bfacd5f6a48190c3156b3404f9cf,PennController,297,0,list_b_naming,NULL,Timer,blank_timer,End,End,1675958551243,b,calculator,Slide133b.PNG,NULL
1675959076,39d1bfacd5f6a48190c3156b3404f9cf,PennController,297,0,list_b_naming,NULL,MediaRecorder,5f9531aba2e73437e84922d0_session1_listb_naming,Recording,Stop,1675958551248,b,calculator,Slide133b.PNG,NULL
1675959076,39d1bfacd5f6a48190c3156b3404f9cf,PennController,297,0,list_b_naming,NULL,PennController,291,_Trial_,End,1675958551249,b,calculator,Slide133b.PNG,NULL
1675959076,39d1bfacd5f6a48190c3156b3404f9cf,PennController,297,0,list_b_naming,NULL,MediaRecorder,5f9531aba2e73437e84922d0_session1_listb_naming,Filename,5f9531aba2e73437e84922d0_session1_listb_naming-16.webm,1675958551249,b,calculator,Slide133b.PNG,NULL
1675959076,39d1bfacd5f6a48190c3156b3404f9cf,PennController,304,0,list_b_naming,NULL,PennController,298,_Trial_,Start,1675958551251,b,foot,Slide140b.PNG,NULL
1675959076,39d1bfacd5f6a48190c3156b3404f9cf,PennController,304,0,list_b_naming,NULL,Image,fixation_cross,Print,NA,1675958551252,b,foot,Slide140b.PNG,NULL
1675959076,39d1bfacd5f6a48190c3156b3404f9cf,PennController,304,0,list_b_naming,NULL,MediaRecorder,5f9531aba2e73437e84922d0_session1_listb_naming,Recording,Start,1675958551810,b,foot,Slide140b.PNG,NULL
1675959076,39d1bfacd5f6a48190c3156b3404f9cf,PennController,304,0,list_b_naming,NULL,Timer,list_b_naming_timer,Start,Start,1675958551812,b,foot,Slide140b.PNG,NULL
1675959076,39d1bfacd5f6a48190c3156b3404f9cf,PennController,304,0,list_b_naming,NULL,Timer,list_b_naming_timer,End,End,1675958553814,b,foot,Slide140b.PNG,NULL
1675959076,39d1bfacd5f6a48190c3156b3404f9cf,PennController,304,0,list_b_naming,NULL,Timer,blank_timer,Start,Start,1675958553815,b,foot,Slide140b.PNG,NULL
1675959076,39d1bfacd5f6a48190c3156b3404f9cf,PennController,304,0,list_b_naming,NULL,Timer,blank_timer,End,End,1675958554816,b,foot,Slide140b.PNG,NULL
1675959076,39d1bfacd5f6a48190c3156b3404f9cf,PennController,304,0,list_b_naming,NULL,MediaRecorder,5f9531aba2e73437e84922d0_session1_listb_naming,Recording,Stop,1675958554821,b,foot,Slide140b.PNG,NULL
1675959076,39d1bfacd5f6a48190c3156b3404f9cf,PennController,304,0,list_b_naming,NULL,PennController,298,_Trial_,End,1675958554822,b,foot,Slide140b.PNG,NULL
1675959076,39d1bfacd5f6a48190c3156b3404f9cf,PennController,304,0,list_b_naming,NULL,MediaRecorder,5f9531aba2e73437e84922d0_session1_listb_naming,Filename,5f9531aba2e73437e84922d0_session1_listb_naming-17.webm,1675958554822,b,foot,Slide140b.PNG,NULL
1675959076,39d1bfacd5f6a48190c3156b3404f9cf,PennController,227,0,list_b_naming,NULL,Image,fixation_cross,Print,NA,1675958554825,b,pumpkin,Slide60b.PNG,NULL
1675959076,39d1bfacd5f6a48190c3156b3404f9cf,PennController,227,0,list_b_naming,NULL,PennController,221,_Trial_,Start,1675958554825,b,pumpkin,Slide60b.PNG,NULL
1675959076,39d1bfacd5f6a48190c3156b3404f9cf,PennController,227,0,list_b_naming,NULL,MediaRecorder,5f9531aba2e73437e84922d0_session1_listb_naming,Recording,Start,1675958555381,b,pumpkin,Slide60b.PNG,NULL
1675959076,39d1bfacd5f6a48190c3156b3404f9cf,PennController,227,0,list_b_naming,NULL,Timer,list_b_naming_timer,Start,Start,1675958555382,b,pumpkin,Slide60b.PNG,NULL
1675959076,39d1bfacd5f6a48190c3156b3404f9cf,PennController,227,0,list_b_naming,NULL,Timer,list_b_naming_timer,End,End,1675958557382,b,pumpkin,Slide60b.PNG,NULL
1675959076,39d1bfacd5f6a48190c3156b3404f9cf,PennController,227,0,list_b_naming,NULL,Timer,blank_timer,Start,Start,1675958557383,b,pumpkin,Slide60b.PNG,NULL
1675959076,39d1bfacd5f6a48190c3156b3404f9cf,PennController,227,0,list_b_naming,NULL,Timer,blank_timer,End,End,1675958558383,b,pumpkin,Slide60b.PNG,NULL
1675959076,39d1bfacd5f6a48190c3156b3404f9cf,PennController,227,0,list_b_naming,NULL,MediaRecorder,5f9531aba2e73437e84922d0_session1_listb_naming,Recording,Stop,1675958558388,b,pumpkin,Slide60b.PNG,NULL
1675959076,39d1bfacd5f6a48190c3156b3404f9cf,PennController,227,0,list_b_naming,NULL,PennController,221,_Trial_,End,1675958558390,b,pumpkin,Slide60b.PNG,NULL
1675959076,39d1bfacd5f6a48190c3156b3404f9cf,PennController,227,0,list_b_naming,NULL,MediaRecorder,5f9531aba2e73437e84922d0_session1_listb_naming,Filename,5f9531aba2e73437e84922d0_session1_listb_naming-18.webm,1675958558390,b,pumpkin,Slide60b.PNG,NULL
1675959076,39d1bfacd5f6a48190c3156b3404f9cf,PennController,263,0,list_b_naming,NULL,PennController,257,_Trial_,Start,1675958558392,b,bat,Slide97b.PNG,NULL
1675959076,39d1bfacd5f6a48190c3156b3404f9cf,PennController,263,0,list_b_naming,NULL,Image,fixation_cross,Print,NA,1675958558393,b,bat,Slide97b.PNG,NULL
1675959076,39d1bfacd5f6a48190c3156b3404f9cf,PennController,263,0,list_b_naming,NULL,MediaRecorder,5f9531aba2e73437e84922d0_session1_listb_naming,Recording,Start,1675958558951,b,bat,Slide97b.PNG,NULL
1675959076,39d1bfacd5f6a48190c3156b3404f9cf,PennController,263,0,list_b_naming,NULL,Timer,list_b_naming_timer,Start,Start,1675958558953,b,bat,Slide97b.PNG,NULL
1675959076,39d1bfacd5f6a48190c3156b3404f9cf,PennController,263,0,list_b_naming,NULL,Timer,list_b_naming_timer,End,End,1675958560953,b,bat,Slide97b.PNG,NULL
1675959076,39d1bfacd5f6a48190c3156b3404f9cf,PennController,263,0,list_b_naming,NULL,Timer,blank_timer,Start,Start,1675958560955,b,bat,Slide97b.PNG,NULL
1675959076,39d1bfacd5f6a48190c3156b3404f9cf,PennController,263,0,list_b_naming,NULL,Timer,blank_timer,End,End,1675958561958,b,bat,Slide97b.PNG,NULL
1675959076,39d1bfacd5f6a48190c3156b3404f9cf,PennController,263,0,list_b_naming,NULL,MediaRecorder,5f9531aba2e73437e84922d0_session1_listb_naming,Recording,Stop,1675958561962,b,bat,Slide97b.PNG,NULL
1675959076,39d1bfacd5f6a48190c3156b3404f9cf,PennController,263,0,list_b_naming,NULL,PennController,257,_Trial_,End,1675958561963,b,bat,Slide97b.PNG,NULL
1675959076,39d1bfacd5f6a48190c3156b3404f9cf,PennController,263,0,list_b_naming,NULL,MediaRecorder,5f9531aba2e73437e84922d0_session1_listb_naming,Filename,5f9531aba2e73437e84922d0_session1_listb_naming-19.webm,1675958561963,b,bat,Slide97b.PNG,NULL
1675959076,39d1bfacd5f6a48190c3156b3404f9cf,PennController,291,0,list_b_naming,NULL,PennController,285,_Trial_,Start,1675958561966,b,belt,Slide127b.PNG,NULL
1675959076,39d1bfacd5f6a48190c3156b3404f9cf,PennController,291,0,list_b_naming,NULL,Image,fixation_cross,Print,NA,1675958561967,b,belt,Slide127b.PNG,NULL
1675959076,39d1bfacd5f6a48190c3156b3404f9cf,PennController,291,0,list_b_naming,NULL,MediaRecorder,5f9531aba2e73437e84922d0_session1_listb_naming,Recording,Start,1675958562531,b,belt,Slide127b.PNG,NULL
1675959076,39d1bfacd5f6a48190c3156b3404f9cf,PennController,291,0,list_b_naming,NULL,Timer,list_b_naming_timer,Start,Start,1675958562533,b,belt,Slide127b.PNG,NULL
1675959076,39d1bfacd5f6a48190c3156b3404f9cf,PennController,291,0,list_b_naming,NULL,Timer,blank_timer,Start,Start,1675958564533,b,belt,Slide127b.PNG,NULL
1675959076,39d1bfacd5f6a48190c3156b3404f9cf,PennController,291,0,list_b_naming,NULL,Timer,list_b_naming_timer,End,End,1675958564533,b,belt,Slide127b.PNG,NULL
1675959076,39d1bfacd5f6a48190c3156b3404f9cf,PennController,291,0,list_b_naming,NULL,Timer,blank_timer,End,End,1675958565535,b,belt,Slide127b.PNG,NULL
1675959076,39d1bfacd5f6a48190c3156b3404f9cf,PennController,291,0,list_b_naming,NULL,MediaRecorder,5f9531aba2e73437e84922d0_session1_listb_naming,Recording,Stop,1675958565541,b,belt,Slide127b.PNG,NULL
1675959076,39d1bfacd5f6a48190c3156b3404f9cf,PennController,291,0,list_b_naming,NULL,PennController,285,_Trial_,End,1675958565542,b,belt,Slide127b.PNG,NULL
1675959076,39d1bfacd5f6a48190c3156b3404f9cf,PennController,291,0,list_b_naming,NULL,MediaRecorder,5f9531aba2e73437e84922d0_session1_listb_naming,Filename,5f9531aba2e73437e84922d0_session1_listb_naming-20.webm,1675958565542,b,belt,Slide127b.PNG,NULL
1675959076,39d1bfacd5f6a48190c3156b3404f9cf,PennController,253,0,list_b_naming,NULL,PennController,247,_Trial_,Start,1675958565544,b,vein,Slide87b.PNG,NULL
1675959076,39d1bfacd5f6a48190c3156b3404f9cf,PennController,253,0,list_b_naming,NULL,Image,fixation_cross,Print,NA,1675958565545,b,vein,Slide87b.PNG,NULL
1675959076,39d1bfacd5f6a48190c3156b3404f9cf,PennController,253,0,list_b_naming,NULL,MediaRecorder,5f9531aba2e73437e84922d0_session1_listb_naming,Recording,Start,1675958566100,b,vein,Slide87b.PNG,NULL
1675959076,39d1bfacd5f6a48190c3156b3404f9cf,PennController,253,0,list_b_naming,NULL,Timer,list_b_naming_timer,Start,Start,1675958566100,b,vein,Slide87b.PNG,NULL
1675959076,39d1bfacd5f6a48190c3156b3404f9cf,PennController,253,0,list_b_naming,NULL,Timer,list_b_naming_timer,End,End,1675958568104,b,vein,Slide87b.PNG,NULL
1675959076,39d1bfacd5f6a48190c3156b3404f9cf,PennController,253,0,list_b_naming,NULL,Timer,blank_timer,Start,Start,1675958568105,b,vein,Slide87b.PNG,NULL
1675959076,39d1bfacd5f6a48190c3156b3404f9cf,PennController,253,0,list_b_naming,NULL,Timer,blank_timer,End,End,1675958569108,b,vein,Slide87b.PNG,NULL
1675959076,39d1bfacd5f6a48190c3156b3404f9cf,PennController,253,0,list_b_naming,NULL,MediaRecorder,5f9531aba2e73437e84922d0_session1_listb_naming,Recording,Stop,1675958569111,b,vein,Slide87b.PNG,NULL
1675959076,39d1bfacd5f6a48190c3156b3404f9cf,PennController,253,0,list_b_naming,NULL,PennController,247,_Trial_,End,1675958569112,b,vein,Slide87b.PNG,NULL
1675959076,39d1bfacd5f6a48190c3156b3404f9cf,PennController,253,0,list_b_naming,NULL,MediaRecorder,5f9531aba2e73437e84922d0_session1_listb_naming,Filename,5f9531aba2e73437e84922d0_session1_listb_naming-21.webm,1675958569112,b,vein,Slide87b.PNG,NULL
1675959076,39d1bfacd5f6a48190c3156b3404f9cf,PennController,217,0,list_b_naming,NULL,PennController,211,_Trial_,Start,1675958569113,b,road,Slide50b.PNG,NULL
1675959076,39d1bfacd5f6a48190c3156b3404f9cf,PennController,217,0,list_b_naming,NULL,Image,fixation_cross,Print,NA,1675958569114,b,road,Slide50b.PNG,NULL
1675959076,39d1bfacd5f6a48190c3156b3404f9cf,PennController,217,0,list_b_naming,NULL,MediaRecorder,5f9531aba2e73437e84922d0_session1_listb_naming,Recording,Start,1675958569672,b,road,Slide50b.PNG,NULL
1675959076,39d1bfacd5f6a48190c3156b3404f9cf,PennController,217,0,list_b_naming,NULL,Timer,list_b_naming_timer,Start,Start,1675958569673,b,road,Slide50b.PNG,NULL
1675959076,39d1bfacd5f6a48190c3156b3404f9cf,PennController,217,0,list_b_naming,NULL,Timer,list_b_naming_timer,End,End,1675958571675,b,road,Slide50b.PNG,NULL
1675959076,39d1bfacd5f6a48190c3156b3404f9cf,PennController,217,0,list_b_naming,NULL,Timer,blank_timer,Start,Start,1675958571676,b,road,Slide50b.PNG,NULL
1675959076,39d1bfacd5f6a48190c3156b3404f9cf,PennController,217,0,list_b_naming,NULL,Timer,blank_timer,End,End,1675958572679,b,road,Slide50b.PNG,NULL
1675959076,39d1bfacd5f6a48190c3156b3404f9cf,PennController,217,0,list_b_naming,NULL,MediaRecorder,5f9531aba2e73437e84922d0_session1_listb_naming,Recording,Stop,1675958572683,b,road,Slide50b.PNG,NULL
1675959076,39d1bfacd5f6a48190c3156b3404f9cf,PennController,217,0,list_b_naming,NULL,PennController,211,_Trial_,End,1675958572684,b,road,Slide50b.PNG,NULL
1675959076,39d1bfacd5f6a48190c3156b3404f9cf,PennController,217,0,list_b_naming,NULL,MediaRecorder,5f9531aba2e73437e84922d0_session1_listb_naming,Filename,5f9531aba2e73437e84922d0_session1_listb_naming-22.webm,1675958572684,b,road,Slide50b.PNG,NULL
1675959076,39d1bfacd5f6a48190c3156b3404f9cf,PennController,311,0,list_b_naming,NULL,PennController,305,_Trial_,Start,1675958572688,b,apron,Slide147b.PNG,NULL
1675959076,39d1bfacd5f6a48190c3156b3404f9cf,PennController,311,0,list_b_naming,NULL,Image,fixation_cross,Print,NA,1675958572689,b,apron,Slide147b.PNG,NULL
1675959076,39d1bfacd5f6a48190c3156b3404f9cf,PennController,311,0,list_b_naming,NULL,MediaRecorder,5f9531aba2e73437e84922d0_session1_listb_naming,Recording,Start,1675958573251,b,apron,Slide147b.PNG,NULL
1675959076,39d1bfacd5f6a48190c3156b3404f9cf,PennController,311,0,list_b_naming,NULL,Timer,list_b_naming_timer,Start,Start,1675958573253,b,apron,Slide147b.PNG,NULL
1675959076,39d1bfacd5f6a48190c3156b3404f9cf,PennController,311,0,list_b_naming,NULL,Timer,list_b_naming_timer,End,End,1675958575254,b,apron,Slide147b.PNG,NULL
1675959076,39d1bfacd5f6a48190c3156b3404f9cf,PennController,311,0,list_b_naming,NULL,Timer,blank_timer,Start,Start,1675958575255,b,apron,Slide147b.PNG,NULL
1675959076,39d1bfacd5f6a48190c3156b3404f9cf,PennController,311,0,list_b_naming,NULL,Timer,blank_timer,End,End,1675958576255,b,apron,Slide147b.PNG,NULL
1675959076,39d1bfacd5f6a48190c3156b3404f9cf,PennController,311,0,list_b_naming,NULL,PennController,305,_Trial_,End,1675958576260,b,apron,Slide147b.PNG,NULL
1675959076,39d1bfacd5f6a48190c3156b3404f9cf,PennController,311,0,list_b_naming,NULL,MediaRecorder,5f9531aba2e73437e84922d0_session1_listb_naming,Recording,Stop,1675958576260,b,apron,Slide147b.PNG,NULL
1675959076,39d1bfacd5f6a48190c3156b3404f9cf,PennController,311,0,list_b_naming,NULL,MediaRecorder,5f9531aba2e73437e84922d0_session1_listb_naming,Filename,5f9531aba2e73437e84922d0_session1_listb_naming-23.webm,1675958576260,b,apron,Slide147b.PNG,NULL
1675959076,39d1bfacd5f6a48190c3156b3404f9cf,PennController,267,0,list_b_naming,NULL,PennController,261,_Trial_,Start,1675958576262,b,elephant,Slide101b.PNG,NULL
1675959076,39d1bfacd5f6a48190c3156b3404f9cf,PennController,267,0,list_b_naming,NULL,Image,fixation_cross,Print,NA,1675958576263,b,elephant,Slide101b.PNG,NULL
1675959076,39d1bfacd5f6a48190c3156b3404f9cf,PennController,267,0,list_b_naming,NULL,MediaRecorder,5f9531aba2e73437e84922d0_session1_listb_naming,Recording,Start,1675958576821,b,elephant,Slide101b.PNG,NULL
1675959076,39d1bfacd5f6a48190c3156b3404f9cf,PennController,267,0,list_b_naming,NULL,Timer,list_b_naming_timer,Start,Start,1675958576822,b,elephant,Slide101b.PNG,NULL
1675959076,39d1bfacd5f6a48190c3156b3404f9cf,PennController,267,0,list_b_naming,NULL,Timer,blank_timer,Start,Start,1675958578825,b,elephant,Slide101b.PNG,NULL
1675959076,39d1bfacd5f6a48190c3156b3404f9cf,PennController,267,0,list_b_naming,NULL,Timer,list_b_naming_timer,End,End,1675958578825,b,elephant,Slide101b.PNG,NULL
1675959076,39d1bfacd5f6a48190c3156b3404f9cf,PennController,267,0,list_b_naming,NULL,Timer,blank_timer,End,End,1675958579826,b,elephant,Slide101b.PNG,NULL
1675959076,39d1bfacd5f6a48190c3156b3404f9cf,PennController,267,0,list_b_naming,NULL,PennController,261,_Trial_,End,1675958579829,b,elephant,Slide101b.PNG,NULL
1675959076,39d1bfacd5f6a48190c3156b3404f9cf,PennController,267,0,list_b_naming,NULL,MediaRecorder,5f9531aba2e73437e84922d0_session1_listb_naming,Recording,Stop,1675958579829,b,elephant,Slide101b.PNG,NULL
1675959076,39d1bfacd5f6a48190c3156b3404f9cf,PennController,267,0,list_b_naming,NULL,MediaRecorder,5f9531aba2e73437e84922d0_session1_listb_naming,Filename,5f9531aba2e73437e84922d0_session1_listb_naming-24.webm,1675958579829,b,elephant,Slide101b.PNG,NULL
1675959076,39d1bfacd5f6a48190c3156b3404f9cf,PennController,315,0,list_b_naming,NULL,PennController,309,_Trial_,Start,1675958579830,b,giraffe,Slide151b.PNG,NULL
1675959076,39d1bfacd5f6a48190c3156b3404f9cf,PennController,315,0,list_b_naming,NULL,Image,fixation_cross,Print,NA,1675958579831,b,giraffe,Slide151b.PNG,NULL
1675959076,39d1bfacd5f6a48190c3156b3404f9cf,PennController,315,0,list_b_naming,NULL,MediaRecorder,5f9531aba2e73437e84922d0_session1_listb_naming,Recording,Start,1675958580393,b,giraffe,Slide151b.PNG,NULL
1675959076,39d1bfacd5f6a48190c3156b3404f9cf,PennController,315,0,list_b_naming,NULL,Timer,list_b_naming_timer,Start,Start,1675958580394,b,giraffe,Slide151b.PNG,NULL
1675959076,39d1bfacd5f6a48190c3156b3404f9cf,PennController,315,0,list_b_naming,NULL,Timer,list_b_naming_timer,End,End,1675958582394,b,giraffe,Slide151b.PNG,NULL
1675959076,39d1bfacd5f6a48190c3156b3404f9cf,PennController,315,0,list_b_naming,NULL,Timer,blank_timer,Start,Start,1675958582395,b,giraffe,Slide151b.PNG,NULL
1675959076,39d1bfacd5f6a48190c3156b3404f9cf,PennController,315,0,list_b_naming,NULL,Timer,blank_timer,End,End,1675958583397,b,giraffe,Slide151b.PNG,NULL
1675959076,39d1bfacd5f6a48190c3156b3404f9cf,PennController,315,0,list_b_naming,NULL,MediaRecorder,5f9531aba2e73437e84922d0_session1_listb_naming,Recording,Stop,1675958583402,b,giraffe,Slide151b.PNG,NULL
1675959076,39d1bfacd5f6a48190c3156b3404f9cf,PennController,315,0,list_b_naming,NULL,PennController,309,_Trial_,End,1675958583403,b,giraffe,Slide151b.PNG,NULL
1675959076,39d1bfacd5f6a48190c3156b3404f9cf,PennController,315,0,list_b_naming,NULL,MediaRecorder,5f9531aba2e73437e84922d0_session1_listb_naming,Filename,5f9531aba2e73437e84922d0_session1_listb_naming-25.webm,1675958583403,b,giraffe,Slide151b.PNG,NULL
1675959076,39d1bfacd5f6a48190c3156b3404f9cf,PennController,269,0,list_b_naming,NULL,PennController,263,_Trial_,Start,1675958583405,b,hair,Slide103b.PNG,NULL
1675959076,39d1bfacd5f6a48190c3156b3404f9cf,PennController,269,0,list_b_naming,NULL,Image,fixation_cross,Print,NA,1675958583406,b,hair,Slide103b.PNG,NULL
1675959076,39d1bfacd5f6a48190c3156b3404f9cf,PennController,269,0,list_b_naming,NULL,MediaRecorder,5f9531aba2e73437e84922d0_session1_listb_naming,Recording,Start,1675958583971,b,hair,Slide103b.PNG,NULL
1675959076,39d1bfacd5f6a48190c3156b3404f9cf,PennController,269,0,list_b_naming,NULL,Timer,list_b_naming_timer,Start,Start,1675958583972,b,hair,Slide103b.PNG,NULL
1675959076,39d1bfacd5f6a48190c3156b3404f9cf,PennController,269,0,list_b_naming,NULL,Timer,blank_timer,Start,Start,1675958585972,b,hair,Slide103b.PNG,NULL
1675959076,39d1bfacd5f6a48190c3156b3404f9cf,PennController,269,0,list_b_naming,NULL,Timer,list_b_naming_timer,End,End,1675958585972,b,hair,Slide103b.PNG,NULL
1675959076,39d1bfacd5f6a48190c3156b3404f9cf,PennController,269,0,list_b_naming,NULL,Timer,blank_timer,End,End,1675958586973,b,hair,Slide103b.PNG,NULL
1675959076,39d1bfacd5f6a48190c3156b3404f9cf,PennController,269,0,list_b_naming,NULL,PennController,263,_Trial_,End,1675958586977,b,hair,Slide103b.PNG,NULL
1675959076,39d1bfacd5f6a48190c3156b3404f9cf,PennController,269,0,list_b_naming,NULL,MediaRecorder,5f9531aba2e73437e84922d0_session1_listb_naming,Recording,Stop,1675958586977,b,hair,Slide103b.PNG,NULL
1675959076,39d1bfacd5f6a48190c3156b3404f9cf,PennController,269,0,list_b_naming,NULL,MediaRecorder,5f9531aba2e73437e84922d0_session1_listb_naming,Filename,5f9531aba2e73437e84922d0_session1_listb_naming-26.webm,1675958586977,b,hair,Slide103b.PNG,NULL
1675959076,39d1bfacd5f6a48190c3156b3404f9cf,PennController,265,0,list_b_naming,NULL,PennController,259,_Trial_,Start,1675958586980,b,harp,Slide99b.PNG,NULL
1675959076,39d1bfacd5f6a48190c3156b3404f9cf,PennController,265,0,list_b_naming,NULL,Image,fixation_cross,Print,NA,1675958586981,b,harp,Slide99b.PNG,NULL
